Acceleration x,Acceleration y,Acceleration z,Rotation x, Rotation y, Rotation z
-1.4562073,5.2899475,7.595749,-0.026565552,0.03552246,-0.37768555
-1.0186157,6.0446777,6.682968,0.23336792,0.588974,-0.48672485
-1.7663574,5.8242493,6.848709,0.2278595,0.9927521,-0.6751709
-2.6799774,4.899414,6.7093964,0.21166992,1.2529907,-0.8697357
-3.319519,4.738907,6.93277,0.28987122,1.1528015,-0.9766388
-3.5166779,4.8706665,7.309906,0.2715454,0.75024414,-0.91096497
-3.449356,4.302841,8.849609,0.2348938,0.21298218,-0.69929504
-2.64151,4.793991,9.935318,0.4700775,0.24719238,-0.42074585
-2.53331,4.8922424,9.767166,1.0293274,0.78230286,-0.2704773
-3.052658,5.083908,6.714203,1.679596,1.4225006,-0.19258118
-3.4974365,6.0255127,4.103195,1.7861938,1.4835815,-0.062164307
-2.600647,6.6101074,2.986267,1.3097076,1.0553741,0.05267334
-1.3984985,7.3408813,3.6804504,0.44502258,0.4176178,-0.051467896
-2.6583557,6.8473206,5.928726,-0.55404663,-0.19447327,-0.4277649
-2.480423,5.3450623,8.100159,-1.1389618,-0.33680725,-0.6678314
-1.5042877,4.396286,8.952896,-1.102005,0.26063538,-0.7359619
-1.8913879,4.7005463,8.590179,-0.757782,1.1036224,-0.8480377
-3.3579865,3.1480103,5.84227,-0.47006226,1.8119354,-1.1030884
-4.2716217,1.8134613,-0.70085144,-0.31245422,1.8870697,-1.2066345
-3.7426758,0.661026,-0.34536743,-0.46791077,0.64212036,-1.0035095
-2.6968231,-0.012237549,1.9701996,-1.1655273,-0.89849854,-0.57528687
-0.318985,-0.5848541,2.5514984,-2.3643646,-0.59428406,-0.08782959
1.8256683,-1.3227997,3.913437,-3.1911774,-0.7189026,0.19317627
1.8088226,-1.1862335,3.4762726,-3.6722412,-0.6404114,0.091781616
1.2101593,-2.1637726,4.6868896,-4.1612396,-1.1972046,-0.30101013
-0.5161133,-2.9736023,7.629364,-4.6371,-2.043274,-0.88775635
-5.1708374,-5.9900665,11.009018,-4.9413147,-2.6141357,-1.3929443
-6.3849792,-6.224869,13.026718,-4.622757,-2.9629364,-1.1803589
-5.4401093,-4.214676,12.325317,-4.0173798,-2.2732544,-0.38989258
-4.6971893,-3.002365,13.485489,-3.7183533,-1.7075958,-0.089035034
-3.7979736,-1.7756348,15.536819,-3.7993011,-0.9754791,-0.26008606
-4.0287933,-1.9145966,16.524063,-3.9700317,0.38586426,-1.0343628
-6.6831207,-3.7211304,16.910782,-3.8539734,1.9719849,-2.1403503
-8.9696045,-5.803177,14.410294,-3.153305,3.4826508,-2.882248
-9.85437,-6.3111267,10.173111,-2.0454865,4.4832764,-2.9237976
-9.486511,-7.2191925,7.5717163,-1.3915558,4.591385,-2.530075
-9.575485,-9.05925,6.2049713,-1.2293701,4.3381805,-1.9717407
-10.693481,-9.500092,3.545929,-1.3332214,3.957306,-1.3706512
-11.967743,-8.515381,4.014328,-1.485321,2.8559113,-0.63790894
-11.054123,-8.050568,3.9470673,-1.6691895,2.2373962,0.04840088
-8.580109,-6.577072,4.9919434,-1.8124542,1.648819,0.4668579
-7.4428864,-6.320709,4.718109,-1.7947235,1.7648926,0.34895325
-9.452866,-7.5905457,4.905472,-1.7201996,1.5828552,0.05757141
-11.809067,-8.21109,4.8910675,-1.5051727,1.2328339,0.053604126
-11.684036,-7.7031555,4.8262177,-1.425766,0.88586426,0.47233582
-10.330429,-7.1185455,6.051239,-1.2397461,0.5034485,0.9918823
-8.856613,-5.7289124,8.160217,-0.8976593,0.51994324,1.3006897
-9.349487,-4.990967,6.301056,-0.2492218,1.1305084,1.2215729
-9.553833,-5.017334,5.309021,0.065979004,1.4035645,1.0102234
-11.962936,-6.493225,4.7421265,0.015289307,1.3473663,0.74845886
-13.018417,-7.583359,3.3417664,-0.10017395,1.3882904,0.8926239
-13.227585,-8.062546,0.5698242,-0.27488708,1.1100464,1.5202942
-11.270508,-8.457886,-0.59036255,-0.7082977,0.32080078,2.3965912
-6.921158,-5.980484,1.1823425,-1.4074402,-0.2674713,3.1974335
-3.5214844,-3.5845642,2.0830994,-1.6636963,-0.40612793,3.1445923
-2.8675232,-2.2644043,5.8806915,-1.8979645,0.08866882,2.3889618
1.0851288,1.4876251,5.8759003,-1.4330902,0.6491394,1.6962433
0.5465698,0.32321167,2.0806885,-0.47525024,1.1112671,0.5196991
-1.4658203,-2.6094208,0.4833374,-0.6157532,0.90571594,-0.23075867
-6.3417206,-4.200302,-0.2612915,-0.63591003,0.12623596,-0.0945282
-8.654633,-1.2605133,1.5738678,-0.88972473,-0.4223175,0.6107178
-8.810913,2.2399292,2.0878906,-1.0152435,-0.5499878,1.0700989
-6.82016,5.5007935,1.8116608,-0.88972473,-0.7677765,1.1226349
-6.995682,3.627182,1.1366882,-0.5409241,-1.6061859,0.69166565
-9.510559,-0.064941406,-0.021072388,-0.18569946,-2.2289734,-0.048721313
-12.934265,-3.2874756,0.6611023,-0.09039307,-2.421692,-0.5960541
-11.81868,-4.1931305,1.8861389,-0.30145264,-2.08786,-0.3703308
-6.95961,-1.3827057,1.3192596,-0.18661499,-1.2216492,0.062469482
-3.9205933,-3.5150757,3.5363312,-0.105667114,-1.136734,-0.19165039
-4.0672607,-6.3183136,3.3369598,-0.09559631,-1.2778473,-0.7405243
-4.319702,-6.3302917,1.3817139,-0.7235718,-0.6917114,-2.066101
-8.471909,-10.8945465,1.4441681,-1.5766449,-0.48158264,-3.2563934
-7.678482,-8.175156,0.55059814,-1.7580719,-1.2845612,-3.2915192
-4.62265,-8.122437,6.017624,-0.99601746,-3.181015,-2.9634857
-7.755432,-10.34108,5.784607,-1.0705414,-3.7185822,-3.0511322
-9.859192,-11.447983,2.4746246,-1.6472015,-2.6538239,-2.463791
-8.315628,-9.34198,6.123291,-1.2855682,-1.6141357,-1.9417877
-5.053009,-6.6728973,3.305725,-1.3237457,-0.28671265,-0.9543152
-4.644287,-6.742386,5.124054,-1.1972961,-1.152008,-0.37734985
-5.3824005,-6.514786,4.975128,-0.95448303,-2.3465729,-0.85383606
-7.2000427,-5.30484,5.0111694,-0.8744507,-1.955307,-1.7469177
-6.476349,-5.127533,3.766922,-0.8567505,-1.3123474,-2.1916504
-2.8867493,-5.8559113,3.1039581,-1.032074,-0.6590271,-2.3037567
-1.121994,-6.2727814,3.4930878,-1.3683472,-0.069229126,-2.5160217
-1.0450592,-6.138626,1.3672943,-1.484726,0.9539795,-2.6656952
-0.778183,-6.866989,1.6195068,-1.3573608,0.9402313,-2.5652008
-1.3672333,-8.333282,2.628357,-1.1594391,-0.31173706,-2.719452
-1.739914,-8.43631,2.1431427,-1.0797119,-0.90367126,-2.5841522
-1.61969,-9.722916,3.6996613,-1.303299,-0.79585266,-1.9030151
-0.93447876,-10.693268,1.2183685,-0.986557,-0.29829407,-1.102478
-0.50650024,-11.275482,0.8724823,-0.88453674,0.32600403,-0.62324524
-0.0929718,-11.809769,0.44491577,-0.53970337,1.058136,-0.4018097
-0.28530884,-13.103577,1.545044,-0.19458008,0.5938721,-0.55911255
-0.7493439,-13.134735,2.296875,-0.06201172,-0.23660278,-1.126297
-1.0931396,-11.893631,2.3305054,-0.24435425,-0.5179138,-1.4253235
-0.8286896,-9.423431,1.6891632,-0.5213928,-0.54478455,-1.5083923
0.034454346,-8.0385895,1.3624878,-0.6945648,-0.3517456,-1.4940491
0.49848938,-8.47464,1.1198883,-0.47679138,-0.425354,-1.3776703
2.2343903,-9.900223,0.72836304,-0.017425537,-0.10069275,-1.3578186
3.58078,-11.711548,0.09902954,0.362854,-0.0026397705,-1.4409027
7.0309296,-15.825348,2.5875244,0.42881775,-0.54325867,-1.1986847
-0.8334961,-10.88974,3.216858,0.6963806,-0.34747314,-0.84988403
-0.25164795,-5.53244,3.2865143,0.44439697,-0.402771,0.46531677
0.5946655,-6.51239,0.9253235,-0.35736084,0.28019714,0.852005
2.4772186,-9.444992,1.3120422,-0.47373962,0.0046844482,0.3996582
3.6312714,-11.713928,1.6603394,-0.19364929,1.0681152E-4,-0.11073303
2.830658,-12.066147,2.3377075,0.15393066,0.17512512,0.1287384
2.0949402,-7.096985,1.9413757,0.24771118,0.28445435,0.64338684
0.7389221,-5.2904663,2.4890442,0.037887573,0.16319275,0.46043396
0.71247864,-14.636963,1.213562,-0.5073242,-0.019454956,-0.35661316
0.05369568,-12.126038,1.1102905,-0.51678467,-0.22195435,-0.23228455
0.79422,-10.147003,1.4441681,-0.9746399,-1.3633728,-0.47511292
1.1019745,-12.034988,1.177536,-0.7513733,-1.0121155,-0.23320007
1.775177,-12.665115,1.9725952,-0.10108948,-0.3255005,-0.16174316
2.4916534,-12.253021,1.5306244,0.22999573,0.17327881,-0.10583496
1.6092682,-11.649261,1.3000336,0.463974,0.3598938,-0.0056610107
1.0009918,-10.724426,1.2543945,0.7449646,0.54467773,0.14431763
0.30856323,-5.92778,1.1895447,1.0280914,0.62286377,0.30160522
0.017623901,-5.388687,1.3720856,0.89004517,0.48939514,0.15744019
0.27249146,-8.029007,1.6675568,0.1478424,-0.02281189,-0.06643677
0.37347412,-9.552826,1.5786743,-0.21104431,-0.104660034,-0.18312073
0.7172699,-9.972092,1.6291046,-0.05406189,0.06362915,-0.12295532
0.90722656,-9.41864,1.8669281,0.068115234,0.044387817,-0.08995056
0.986557,-9.4210205,2.049469,-0.014968872,-0.117507935,-0.013305664
1.6405334,-9.979294,1.7516174,-0.11331177,-0.15629578,0.07925415
1.664566,-9.2916565,1.8813171,-0.11453247,-0.05580139,0.09971619
2.1165771,-10.024811,1.5594635,-0.05680847,9.1552734E-5,0.1669159
2.508484,-10.185333,1.7083893,-0.010070801,0.005584717,0.11529541
2.1045532,-9.698959,1.8236847,-0.013427734,-0.001739502,0.060012817
1.7607269,-9.751663,1.8404846,0.029022217,0.044067383,0.03831482
1.5683899,-9.660629,1.7684326,0.053756714,0.08744812,0.033432007
1.4097137,-9.615112,1.6747437,0.032073975,0.105773926,0.011749268
1.3015289,-9.571976,1.5042114,0.028717041,0.1295929,0.0074768066
1.2462311,-9.737289,1.545044,0.034210205,0.14303589,0.0059509277
1.2750854,-9.926575,1.7107697,0.028717041,0.1378479,0.022750854
1.1620636,-9.804382,1.8212738,0.01651001,0.13357544,0.017547607
1.2221832,-9.425827,1.7444153,0.009170532,0.121658325,0.021835327
1.1885223,-9.524063,1.8188782,0.0061187744,0.13569641,-0.0019989014
1.1188049,-9.437805,1.7612152,0.015274048,0.20716858,0.0016784668
0.8855896,-8.5225525,1.8765106,0.061706543,0.21603394,0.037094116
1.2798767,-10.683701,1.7276001,0.12461853,0.19740295,0.13209534
0.93125916,-9.885849,1.9221649,0.020477295,0.13296509,0.009307861
0.70526123,-9.617493,1.7324066,0.042770386,0.17204285,0.023666382
0.8182678,-9.639069,1.6074982,0.06109619,0.23405457,0.020004272
0.8423004,-9.610306,1.7612152,0.057724,0.22337341,0.020004272
0.8976135,-9.629486,1.8188782,0.03819275,0.19129944,0.017852783
0.9120178,-9.691772,1.8164673,0.02444458,0.16716003,0.0065612793
0.99617004,-9.77803,1.7492218,0.018035889,0.20075989,0.0010681152
1.1043701,-9.5216675,1.698761,0.02658081,0.24107361,0.014190674
1.1524506,-9.559998,1.7348175,0.045211792,0.26184082,0.007171631
1.1548615,-9.619888,1.8693237,0.068115234,0.27772522,0.011749268
1.0562897,-9.660629,2.0638885,0.09223938,0.27070618,0.018463135
0.9216461,-9.720535,2.133545,0.091934204,0.2728424,0.027633667
0.7822113,-9.682205,2.1095276,0.09591675,0.2780304,0.041992188
0.6187134,-9.62709,2.075882,0.10934448,0.26216125,0.04626465
0.52734375,-9.653442,2.0662842,0.10720825,0.23710632,0.040771484
0.50090027,-9.636673,2.0734863,0.1408081,0.24290466,0.039245605
0.56340027,-9.746887,2.1047058,0.11729431,0.21359253,0.025802612
0.70765686,-9.739685,2.0686798,0.12890625,0.21328735,0.016326904
0.74853516,-9.830734,2.1455536,0.12980652,0.20077515,0.029159546
0.68362427,-9.775635,2.2800598,0.10812378,0.15098572,0.035873413
0.71006775,-9.708542,2.3593292,0.11911011,0.19467163,0.040161133
0.8999939,-9.562393,2.4025574,0.14355469,0.2554474,0.052978516
1.1091766,-9.725311,2.609146,0.17745972,0.27407837,0.07008362
1.1933289,-10.0008545,2.875763,0.24555969,0.3150177,0.085357666
1.138031,-10.070343,3.0727234,0.29595947,0.21879578,0.114990234
0.9889679,-10.067932,3.0823364,0.33963013,0.17298889,0.14460754
0.9096222,-9.792404,2.8973846,0.39797974,0.20872498,0.1375885
0.92884827,-9.344376,2.8036957,0.41445923,0.22644043,0.1299591
0.8110504,-9.037689,2.782074,0.43585205,0.2071991,0.11376953
0.5441742,-9.054459,2.8781738,0.42759705,0.17878723,0.08657837
0.33018494,-9.1263275,2.9093933,0.41081238,0.12930298,0.060913086
0.31817627,-8.843613,3.084732,0.37017822,0.024841309,0.006866455
0.5177307,-8.551315,3.317749,0.3924713,0.052337646,-0.065216064
0.85191345,-8.206299,3.3321533,0.46577454,0.13357544,-0.14982605
0.9673157,-8.062546,3.094345,0.38575745,0.17329407,-0.22434998
0.8976135,-8.211105,2.664383,0.43463135,0.38464355,-0.25610352
0.8399048,-8.43631,2.2416382,0.1820221,0.2420044,-0.2668152
0.8495178,-8.707062,1.9533844,-0.014373779,0.20779419,-0.25091553
0.9096222,-8.88913,1.8909454,-0.22419739,0.073410034,-0.26802063
1.0442657,-8.781326,1.9293671,-0.31765747,0.13723755,-0.28085327
1.2606506,-8.558502,2.011032,-0.3796692,0.063949585,-0.32728577
1.664566,-8.90831,2.0566711,-0.4841156,0.042266846,-0.36943054
1.9458618,-9.159882,2.0662842,-0.57788086,0.030654907,-0.4018097
2.042038,-9.387497,2.1575623,-0.6533356,-0.0032653809,-0.4176941
1.9530945,-9.663025,2.2320251,-0.689682,-0.043273926,-0.40516663
1.8737488,-9.902603,2.3040771,-0.68785095,-0.05731201,-0.3807373
2.0300293,-9.914597,2.0422668,-0.69944763,0.011703491,-0.33338928
2.2319794,-9.85231,1.8981476,-0.7361145,0.0440979,-0.30499268
2.4123077,-9.940964,1.8885345,-0.76908875,0.08532715,-0.2878723
2.5205078,-9.931366,1.6915741,-0.7923126,0.15037537,-0.28788757
2.645523,-9.79718,1.6699371,-0.8515625,0.19589233,-0.30192566
2.8811493,-9.461777,1.1727295,-0.9169159,0.28996277,-0.31506348
2.8763275,-9.255722,0.50016785,-1.007019,0.26004028,-0.38531494
2.8571014,-9.368332,-0.12197876,-1.1252289,0.11982727,-0.43081665
2.821045,-9.368332,0.5986481,-1.1658478,-0.10588074,-0.4754181
2.3906708,-10.103867,2.023056,-1.0528412,-0.121154785,-0.5276489
1.6910248,-11.36174,2.1263428,-0.80513,0.0071411133,-0.47694397
1.4794312,-10.666916,0.7403717,-0.68081665,0.052947998,-0.3187256
1.8929749,-10.00325,-1.2629242,-0.8500366,0.20108032,-0.24450684
2.9268188,-9.425827,-0.5207062,-0.910202,0.29393005,-0.15318298
1.7366943,-9.869064,0.76197815,-0.70617676,0.1265564,-0.108291626
0.39511108,-9.689377,0.4545288,-0.72969055,0.18397522,-0.07437134
-0.21318054,-9.715729,-0.7128601,-0.8341522,0.30340576,0.06825256
-0.85032654,-10.4201355,-0.8185425,-0.8802643,0.19558716,0.27198792
-1.434555,-10.932861,-0.42462158,-0.8775177,-0.059158325,0.45890808
-0.9128418,-10.4201355,-0.6840515,-0.8802643,-0.24362183,0.599411
0.9216461,-9.212601,-0.98669434,-0.9007263,-0.4128418,0.6290283
2.5974426,-8.917892,-1.1932831,-0.7306061,-0.54815674,0.45768738
3.2369843,-9.483337,-0.6600189,-0.5262604,-0.6458893,0.2295227
2.215149,-10.669312,-0.28530884,-0.32254028,-0.5121002,0.056350708
0.71006775,-11.241943,-0.7344818,-0.27275085,-0.3627472,-0.0062713623
0.38067627,-10.583054,-1.4575043,-0.20037842,-0.22010803,0.060012817
0.5561981,-10.00325,-1.3493958,-0.15730286,-0.06800842,0.14889526
-0.023239136,-10.00325,-1.2268982,-0.051315308,0.009567261,0.18217468
-0.5690155,-10.187744,-0.99150085,-0.0042877197,0.086242676,0.18463135
-1.2085724,-10.290756,-0.8954315,0.036636353,0.016601562,0.19500732
-1.1820984,-10.333878,-0.8257599,0.053131104,-0.104660034,0.22525024
-0.23242188,-10.135025,-0.6239929,0.073913574,-0.18162537,0.25976562
0.0897522,-10.137405,-0.41981506,0.12339783,-0.24484253,0.24388123
-0.18432617,-9.744492,-0.5711365,0.1508789,-0.2967682,0.20631409
-0.261261,-9.478531,-0.54953,0.17774963,-0.31173706,0.1940918
-0.088150024,-9.413849,-0.5279083,0.19515991,-0.34259033,0.18003845
0.38549805,-9.375519,-0.5567322,0.18600464,-0.3416748,0.16018677
0.4960785,-9.562393,-0.38859558,0.17988586,-0.386261,0.118652344
0.46243286,-9.636673,-0.5687561,0.1508789,-0.41711426,0.07925415
0.5057068,-9.603134,-0.5615387,0.114227295,-0.42170715,0.056030273
0.5417633,-9.483337,-0.50387573,0.08428955,-0.4116211,0.04168701
0.47924805,-9.603134,-0.41500854,0.07635498,-0.40641785,0.016326904
0.30615234,-9.780426,-0.4438324,0.07084656,-0.4250641,-0.0019836426
0.19316101,-9.8810425,-0.49186707,0.05986023,-0.45896912,-0.010848999
0.01763916,-9.7708435,-0.4102173,0.04824829,-0.49409485,-0.021850586
-0.36224365,-9.835541,-0.751297,0.047332764,-0.4864502,-0.03804016
-0.4920807,-10.024811,-0.8497772,0.037872314,-0.48797607,-0.045669556
-0.17712402,-10.02002,-0.6528168,0.053451538,-0.5377655,-0.0597229
0.31336975,-9.897827,-0.53993225,0.055267334,-0.5667877,-0.078048706
0.7653656,-9.837936,-0.2324524,0.062301636,-0.5539551,-0.09637451
0.8759613,-9.909805,-0.102752686,0.10231018,-0.49897766,-0.12509155
0.42636108,-10.036789,-0.6239929,0.10169983,-0.4592743,-0.1421814
0.0032043457,-10.024811,-1.0491486,0.09100342,-0.49287415,-0.12234497
0.286911,-9.933762,-1.0179291,0.122161865,-0.52615356,-0.07926941
0.52734375,-9.98407,-1.1356201,0.18417358,-0.5539551,-0.07286072
0.5802307,-10.031998,-1.9955444,0.16584778,-0.5722809,-0.08720398
1.2245941,-9.701355,-2.009964,0.16674805,-0.48461914,-0.09515381
2.1550446,-10.130234,-0.96507263,0.22814941,-0.4800415,-0.10308838
2.7969818,-9.775635,0.5289917,0.26541138,-0.49684143,-0.04322815
2.602234,-8.8771515,0.24554443,0.24830627,-0.20393372,-0.018173218
1.8136292,-8.754974,-0.37417603,0.13774109,0.09020996,-0.06674194
1.0274353,-9.809174,-0.41020203,0.09101868,0.14793396,-0.14433289
0.11619568,-10.096695,-0.90263367,0.0736084,0.21482849,-0.13638306
-0.70124817,-9.792404,-1.128418,0.07513428,0.15710449,-0.09240723
-0.10739136,-9.727707,-0.20603943,0.091934204,-0.027374268,-0.07316589
1.2582397,-9.667816,0.22392273,0.12246704,-0.09793091,-0.047195435
1.7727661,-9.684586,0.048583984,0.07269287,-0.08786011,-0.029785156
1.4674225,-9.694183,-0.08833313,0.021377563,-0.08265686,-0.011764526
1.0009918,-9.679794,-0.20603943,0.0018310547,-0.031967163,-0.01725769
0.6788025,-9.619888,-0.25888062,0.0012054443,0.020568848,-0.037734985
0.741333,-9.720535,-0.3573761,-0.011917114,0.08746338,-0.05177307
0.85191345,-9.761246,-0.364563,-0.024139404,0.10884094,-0.060028076
0.74612427,-9.8954315,-0.28530884,-0.042770386,0.0947876,-0.06460571
0.7004547,-10.022415,-0.19403076,-0.034210205,0.089904785,-0.06185913
0.6908264,-9.801987,-0.13398743,-0.023529053,0.06791687,-0.05329895
0.7677765,-9.68219,-0.14117432,-0.030548096,0.04408264,-0.04597473
0.96972656,-9.720535,-0.21325684,-0.027496338,0.045913696,-0.042633057
0.9913635,-9.890625,-0.16519165,-0.024139404,0.020568848,-0.05026245
0.92884827,-9.94574,-0.18682861,-0.034210205,0.008956909,-0.049957275
1.0731201,-9.722916,-0.18682861,-0.03604126,0.024536133,-0.040496826
1.0947418,-9.600739,-0.22764587,-0.027496338,0.03919983,-0.03315735
0.90000916,-9.732498,-0.29011536,-0.021392822,0.023925781,-0.036209106
0.7605591,-9.77803,-0.47746277,-0.023208618,0.008041382,-0.031936646
0.8831787,-9.722916,-0.57595825,-0.035736084,-0.027679443,-0.020339966
0.99617004,-9.651047,-0.6239929,-0.044296265,-0.08816528,-0.014221191
1.0995636,-9.708557,-0.6504059,-0.05467224,-0.10801697,-0.011779785
1.1428375,-9.698959,-0.57354736,-0.061706543,-0.090911865,-0.008117676
1.1885223,-9.708557,-0.47987366,-0.06414795,-0.050598145,-0.0068969727
1.2221832,-9.751663,-0.58555603,-0.06933594,0.018417358,-0.0020141602
1.1644745,-9.72052,-0.7561035,-0.07513428,0.059661865,-0.001083374
1.2558441,-9.691772,-0.86660767,-0.071777344,0.079208374,-0.003540039
1.3928833,-9.643845,-0.7464905,-0.0806427,0.09295654,-0.0059814453
1.2726746,-9.612717,-0.63360596,-0.073913574,0.09295654,-0.01574707
1.0562744,-9.639069,-0.6456146,-0.07543945,0.10884094,-0.024002075
0.9625244,-9.689377,-0.8882141,-0.07116699,0.14915466,-0.024612427
1.008194,-9.732513,-1.1716461,-0.039108276,0.1583252,-0.024917603
1.097168,-9.801987,-1.1308289,-0.03514099,0.09663391,-0.02583313
1.128418,-9.943344,-0.926651,-0.06689453,0.011108398,-0.02949524
1.0635071,-9.912201,-0.6816406,-0.09866333,-0.026763916,-0.026138306
0.9913788,-9.828354,-0.6167908,-0.102630615,-0.015777588,-0.0154418945
1.106781,-9.842712,-0.7368927,-0.086746216,0.028518677,-0.0041503906
1.2846985,-9.950531,-0.8113556,-0.06384277,0.053253174,-4.7302246E-4
1.3712616,-9.94574,-0.59036255,-0.042770386,0.042556763,0.0047302246
1.3544159,-9.881058,-0.41261292,-0.026275635,0.04499817,0.01512146
1.2702637,-9.782822,-0.4726715,-0.025970459,0.07218933,0.02305603
1.147644,-9.744492,-0.7008667,-0.025054932,0.10151672,0.023040771
1.0370483,-9.813965,-0.85697937,-0.02229309,0.12043762,0.017868042
0.955307,-9.818756,-0.8497772,-0.015579224,0.115859985,0.012359619
0.8976135,-9.792404,-0.81614685,-0.006713867,0.087768555,0.008087158
0.9649353,-9.792404,-0.82095337,-0.0033721924,0.07524109,0.009307861
1.017807,-9.758865,-0.92904663,-0.010696411,0.077682495,0.015106201
1.0586853,-9.737289,-0.97468567,-0.018325806,0.06669617,0.020309448
1.1428375,-9.722931,-0.9458618,-0.019851685,0.055999756,0.020309448
1.2005463,-9.727707,-0.91464233,-0.021377563,0.058441162,0.022750854
1.2414093,-9.713333,-0.9362488,-0.023529053,0.07279968,0.021835327
1.1981506,-9.691772,-0.9794922,-0.021087646,0.092041016,0.016326904
1.0587006,-9.701355,-1.0010986,-0.020767212,0.114349365,0.013885498
1.0153961,-9.730118,-1.065979,-0.027191162,0.13389587,0.01663208
1.106781,-9.734894,-1.0803833,-0.0388031,0.14762878,0.021224976
1.1716919,-9.725311,-1.0611572,-0.04460144,0.14274597,0.01939392
1.1308289,-9.730118,-1.0179291,-0.042160034,0.122283936,0.011749268
1.1091766,-9.696564,-0.9842987,-0.038482666,0.109451294,0.0062561035
1.0731201,-9.7109375,-0.9818878,-0.03970337,0.11647034,0.0022888184
0.986557,-9.763657,-0.9770813,-0.04031372,0.11402893,-0.0019989014
1.0130157,-9.773224,-0.99871826,-0.040924072,0.11463928,-0.001373291
0.9841614,-9.763657,-0.99150085,-0.044296265,0.106399536,-0.0029144287
0.9505005,-9.763657,-0.9674835,-0.041549683,0.08502197,-0.0032196045
0.9913635,-9.787628,-0.962677,-0.034210205,0.07157898,-0.004135132
1.044281,-9.7948,-0.95306396,-0.025665283,0.06149292,-0.007507324
1.0250244,-9.780426,-0.8978119,-0.016189575,0.0541687,-0.006591797
0.9913788,-9.763657,-0.95306396,-0.009170532,0.05630493,-0.001083374
1.0370483,-9.730118,-0.9963074,-0.008560181,0.06088257,0.0037994385
1.0490723,-9.758865,-1.0010986,-0.007949829,0.057525635,0.0037994385
1.0683136,-9.761246,-0.9770813,-0.0030517578,0.048675537,7.4768066E-4
1.116394,-9.751663,-0.9842987,9.1552734E-4,0.04560852,-1.6784668E-4
1.1260071,-9.694168,-1.0035095,-0.002746582,0.04774475,-7.7819824E-4
1.1188049,-9.672607,-1.0347443,-0.009780884,0.055389404,-0.001083374
1.116394,-9.737289,-1.008316,-0.013748169,0.06362915,-0.0014038086
1.106781,-9.77803,-0.9602814,-0.01802063,0.06791687,-0.002319336
1.0682983,-9.746887,-0.8978119,-0.018630981,0.06515503,-0.0020141602
1.0514832,-9.751663,-0.8954315,-0.015274048,0.063934326,-7.7819824E-4
1.0659027,-9.758865,-0.9242401,-0.015579224,0.07585144,0.0019683838
1.0731201,-9.782822,-0.93865967,-0.017715454,0.08470154,0.0041046143
1.0346375,-9.799606,-0.89302063,-0.013442993,0.07493591,0.007156372
1.0034027,-9.7948,-0.8978119,-0.011306763,0.07035828,0.0135650635
0.99858093,-9.787628,-0.91944885,-0.013442993,0.07249451,0.019989014
1.0298309,-9.804382,-0.9074402,-0.008865356,0.07829285,0.022125244
1.0394592,-9.825958,-0.90263367,0.0033569336,0.081344604,0.020584106
1.0274353,-9.849915,-0.9434662,0.009460449,0.08287048,0.022735596
1.0202179,-9.799606,-0.9818878,0.0119018555,0.08287048,0.02607727
1.0490723,-9.725311,-0.99150085,0.013427734,0.08470154,0.030670166
1.0755157,-9.675003,-1.0059052,0.016479492,0.0801239,0.031280518
1.0899506,-9.698959,-1.0155182,0.018310547,0.06790161,0.028839111
1.0635071,-9.77803,-0.9842987,0.025650024,0.053863525,0.027618408
1.0514832,-9.773224,-0.99871826,0.02809143,0.04988098,0.031906128
1.1115875,-9.761261,-0.98669434,0.025344849,0.051712036,0.033737183
1.1500549,-9.742096,-1.0275269,0.02229309,0.065475464,0.034347534
1.1716919,-9.672607,-1.0635681,0.019241333,0.073410034,0.033432007
1.0995636,-9.619904,-1.0251312,0.024429321,0.058135986,0.027023315
1.0346375,-9.6462555,-1.0179291,0.025039673,0.052947998,0.020614624
1.0057831,-9.677399,-1.080368,0.017089844,0.053863525,0.021820068
1.0250244,-9.7109375,-1.0707703,0.014343262,0.046539307,0.022750854
1.0635071,-9.7109375,-1.0779877,0.010986328,0.03401184,0.02243042
1.1091766,-9.689377,-1.092392,0.0073242188,0.021484375,0.01876831
1.1428375,-9.725311,-1.1019897,0.003036499,0.010498047,0.014190674
1.1692963,-9.768448,-1.0419464,-0.0015258789,0.0053100586,0.012664795
1.1885223,-9.720535,-0.9867096,0.0012207031,-8.087158E-4,0.011138916
1.1789093,-9.689377,-0.9963074,0.0076293945,-0.00630188,0.006866455
1.1260071,-9.754074,-1.0779877,0.009460449,-0.0053863525,0.004425049
1.0418549,-9.7948,-1.1332092,0.0051879883,-0.004470825,0.004119873
1.0009918,-9.790009,-1.0515442,0.003967285,-0.0069122314,0.0065612793
1.0418701,-9.7109375,-0.9867096,0.012207031,-0.00630188,0.005645752
1.0274353,-9.708557,-0.96507263,0.018920898,-0.0066070557,0.0019836426
0.9408722,-9.727707,-1.0107269,0.01586914,-0.014862061,-0.0019836426
0.8976135,-9.768448,-1.0851746,0.010070801,-0.017303467,-0.0032043457
0.9192352,-9.715729,-1.065979,0.010681152,-0.027069092,-0.001373291
0.986557,-9.686981,-1.0251312,0.008850098,-0.031036377,-0.0023040771
1.0707092,-9.701355,-0.9770813,0.0024261475,-0.02218628,-0.007797241
1.0418701,-9.742096,-0.93865967,-0.002456665,-0.013641357,-0.012069702
1.0298462,-9.75647,-0.9362488,-0.009475708,0.0010223389,-0.012069702
1.0106049,-9.727707,-0.95306396,-0.016799927,0.013244629,-0.009628296
1.0154114,-9.715729,-0.9002228,-0.019851685,0.01751709,-0.0071868896
1.0226288,-9.725311,-0.8281708,-0.016189575,0.026062012,-0.0032043457
1.0346375,-9.7109375,-0.8425751,-0.01802063,0.045318604,-4.5776367E-4
0.99858093,-9.68219,-0.8641968,-0.022598267,0.06088257,-0.0022888184
0.95770264,-9.744492,-0.87861633,-0.03024292,0.06729126,-0.0062713623
0.924057,-9.77803,-0.8690033,-0.03604126,0.06607056,-0.009933472
0.8591461,-9.787628,-0.8137512,-0.037261963,0.056610107,-0.013900757
0.79182434,-9.792404,-0.8041382,-0.038482666,0.045928955,-0.014205933
0.7677765,-9.77803,-0.8353729,-0.04093933,0.026062012,-0.014511108
0.73651123,-9.742096,-0.7825165,-0.041549683,1.0681152E-4,-0.015731812
0.70526123,-9.734894,-0.6816406,-0.032989502,-0.027374268,-0.019088745
0.6932373,-9.825958,-0.6816406,-0.021697998,-0.040512085,-0.01939392
0.60427856,-10.118256,-0.6888428,-0.014053345,-0.057922363,-0.016342163
0.6908264,-10.194916,-0.6552124,-0.0036773682,-0.08204651,-0.008102417
0.9937744,-9.981674,-0.5663452,0.022903442,-0.08694458,0.0035095215
1.1404419,-9.782822,-0.59516907,0.05467224,-0.05670166,0.01876831
1.0394592,-9.746887,-0.75849915,0.068099976,-0.01638794,0.027023315
1.0442657,-9.787613,-0.8858032,0.0690155,0.022094727,0.03312683
1.116394,-9.813965,-0.87620544,0.06871033,0.036758423,0.040756226
1.190918,-9.698959,-0.87379456,0.07054138,0.048065186,0.047180176
1.0947418,-9.595932,-0.9314575,0.06474304,0.061798096,0.04534912
1.0057831,-9.610306,-0.95306396,0.05404663,0.08074951,0.03404236
0.9937744,-9.660629,-1.0107269,0.033294678,0.110061646,0.02305603
0.9601135,-9.660629,-0.9963074,0.012817383,0.10487366,0.014511108
0.94569397,-9.672607,-0.9578705,-0.0021362305,0.0789032,0.0059509277
0.97213745,-9.708557,-0.90263367,-0.009490967,0.062423706,0.0010528564
0.9889679,-9.761246,-0.8617859,-0.013153076,0.06640625,-0.0044555664
0.9625244,-9.785202,-0.9002228,-0.015594482,0.08534241,-0.008117676
0.86634827,-9.785217,-0.9314575,-0.013458252,0.07984924,-0.0099487305
0.8230591,-9.7948,-0.9602814,-0.0061187744,0.049301147,-0.010559082
0.89279175,-9.792404,-0.9938965,-0.0018615723,0.025466919,-0.010864258
0.9192352,-9.7708435,-0.92904663,0.006088257,0.009902954,-0.010559082
0.9096222,-9.754074,-0.92904663,0.010360718,-0.0072021484,-0.007507324
0.9649353,-9.739685,-0.99150085,0.010971069,-0.021865845,-0.0041503906
1.0779266,-9.732513,-0.98908997,0.012191772,-0.029800415,-0.0019989014
1.1452484,-9.708557,-0.93385315,0.012191772,-0.027664185,-0.004760742
1.106781,-9.727707,-0.95306396,0.0076141357,-0.015457153,-0.008422852
1.0683136,-9.754074,-0.9794922,0.005783081,-0.01210022,-0.0126953125
1.0154114,-9.75647,-0.9891052,0.004562378,-0.015457153,-0.015136719
0.9937744,-9.749283,-0.99871826,0.00730896,-0.018508911,-0.014831543
0.99858093,-9.758865,-0.9578705,0.010665894,-0.025527954,-0.0126953125
1.0370483,-9.746887,-0.91944885,0.012191772,-0.026748657,-0.0099487305
1.0466614,-9.715729,-0.8665924,0.009750366,-0.027359009,-0.008728027
1.0274353,-9.749283,-0.8858032,0.00730896,-0.028579712,-0.0099487305
1.0202179,-9.734909,-0.9050293,0.0036468506,-0.03225708,-0.012084961
1.0274353,-9.722916,-0.87620544,0.0018157959,-0.03378296,-0.0154418945
1.0009918,-9.75647,-0.8449707,5.950928E-4,-0.03439331,-0.018188477
0.986557,-9.782822,-0.8089447,-0.0012359619,-0.031021118,-0.016357422
0.9841614,-9.787628,-0.80174255,-0.0012512207,-0.027359009,-0.011169434
1.0226288,-9.770828,-0.8041382,-3.0517578E-5,-0.026748657,-0.006591797
1.0682983,-9.806778,-0.81614685,0.0054779053,-0.031036377,-0.005050659
1.0562897,-9.813965,-0.7897339,0.014328003,-0.034698486,-0.005050659
1.0274353,-9.792404,-0.7897339,0.02319336,-0.03164673,-0.0017089844
1.0322418,-9.768448,-0.81614685,0.028686523,-0.019729614,0.0053253174
1.0322418,-9.751663,-0.8137512,0.028686523,-0.010253906,0.010513306
1.0562744,-9.782822,-0.82095337,0.029907227,-0.0032348633,0.013885498
1.0250244,-9.792404,-0.8137512,0.031433105,-0.0044555664,0.0132751465
0.9841614,-9.773224,-0.80174255,0.033569336,-0.010253906,0.013870239
0.96972656,-9.71814,-0.8113556,0.036315918,-0.012710571,0.014175415
0.9937897,-9.732513,-0.87379456,0.03112793,-0.0053710938,0.01449585
1.0250244,-9.715729,-0.87620544,0.02746582,-0.0014038086,0.015090942
1.0899506,-9.694183,-0.83296204,0.021362305,0.0037841797,0.015090942
1.0851288,-9.701355,-0.8041382,0.016159058,0.009597778,0.007461548
0.9817505,-9.730118,-0.8137512,0.00944519,0.010513306,-0.0013885498
0.93367004,-9.701355,-0.90263367,-0.0027770996,0.021499634,-0.0016937256
0.924057,-9.679794,-1.0107269,-0.016815186,0.02822876,-4.7302246E-4
0.92884827,-9.653442,-0.96987915,-0.02507019,0.022415161,-0.0059814453
0.9817505,-9.689377,-0.9578705,-0.041259766,0.021820068,-0.012390137
0.9817505,-9.727707,-0.87861633,-0.05102539,0.00592041,-0.018798828
1.0346375,-9.75647,-0.79693604,-0.0546875,-0.009643555,-0.022476196
1.0851288,-9.780426,-0.8137512,-0.053771973,-0.0014038086,-0.0236969
1.0394592,-9.845108,-0.7729187,-0.050109863,-0.0017089844,-0.0236969
1.0514832,-9.8954315,-0.78012085,-0.04309082,0.005935669,-0.018493652
1.0226288,-9.921783,-0.6960602,-0.02659607,0.010513306,-0.0126953125
0.9673157,-9.928986,-0.62638855,-0.006439209,0.016921997,-0.006591797
0.92645264,-9.893036,-0.66722107,0.011581421,0.02394104,0.0037994385
0.92404175,-9.825958,-0.7200775,0.027160645,0.025772095,0.015090942
0.90722656,-9.790009,-0.7705078,0.038482666,0.024230957,0.020904541
0.9120178,-9.742096,-0.79452515,0.042144775,0.015075684,0.022415161
0.924057,-9.742096,-0.8065338,0.041534424,0.008666992,0.021820068
0.8999939,-9.720535,-0.80174255,0.03817749,0.003768921,0.019073486
0.9528961,-9.703751,-0.8137512,0.032058716,-1.9836426E-4,0.016326904
0.986557,-9.691772,-0.8449707,0.02229309,4.119873E-4,0.012054443
0.96972656,-9.701355,-0.8353729,0.01159668,0.0022583008,0.007461548
0.95770264,-9.763657,-0.82095337,0.004257202,0.0019378662,0.0028839111
0.9673157,-9.806778,-0.80174255,3.0517578E-4,-0.003250122,0.0028839111
0.955307,-9.7948,-0.7705078,0.002746582,-0.007522583,0.005935669
0.9528961,-9.775635,-0.75849915,0.008239746,-0.0056915283,0.0068511963
0.97935486,-9.766052,-0.7993469,0.010375977,0.006225586,0.008682251
0.986557,-9.773224,-0.78492737,0.012207031,0.012939453,0.01020813
0.9817505,-9.787613,-0.75849915,0.013122559,0.012634277,0.011444092
0.9625244,-9.768448,-0.73928833,0.013122559,0.011413574,0.011734009
0.94088745,-9.727707,-0.7681122,0.015258789,0.014160156,0.009902954
0.9144287,-9.734909,-0.8473816,0.010375977,0.018127441,0.01020813
0.9192352,-9.744492,-0.8089447,0.005493164,0.015991211,0.008682251
0.92645264,-9.75647,-0.7536926,0.003967285,0.0095825195,0.005935669
1.0009918,-9.730118,-0.7032623,0.0036621094,0.011413574,0.0041046143
0.9432831,-9.739685,-0.7464905,0.003036499,0.025772095,-0.0023040771
0.7773895,-9.766052,-0.80415344,6.1035156E-4,0.027282715,-0.007507324
0.6980438,-9.790009,-0.85939026,-0.0036621094,0.01965332,-0.0059814453
0.741333,-9.81636,-0.81614685,-0.006729126,0.002243042,0.0019683838
0.83509827,-9.763657,-0.7464905,-0.002746582,-0.016082764,0.008377075
0.9048157,-9.663025,-0.7104645,0.0012054443,-0.02798462,0.011734009
0.95770264,-9.763657,-0.72727966,0.0015106201,-0.039276123,0.01020813
0.99617004,-9.806778,-0.7729187,-0.0073547363,-0.05882263,0.005630493
1.0009918,-9.773224,-0.78012085,-0.0140686035,-0.07287598,-0.0029296875
0.9889679,-9.758865,-0.8185425,-0.015594482,-0.08691406,-0.014221191
1.0274353,-9.763657,-0.83776855,-0.014373779,-0.0896759,-0.017578125
1.0466614,-9.804382,-0.78733826,-0.015899658,-0.07196045,-0.012084961
1.0586853,-9.7948,-0.74409485,-0.014984131,-0.05973816,-0.0053710938
1.0995636,-9.787613,-0.76571655,-0.010101318,-0.053634644,-0.0029296875
1.0875397,-9.7948,-0.7897186,-0.0046081543,-0.0395813,-0.0010986328
0.9913788,-9.785217,-0.88101196,-0.0012359619,-0.02003479,0.0019683838
0.8326874,-9.77803,-0.9410553,-0.002166748,-0.0059814453,0.0037994385
0.8062439,-9.754074,-0.9242401,-0.0012359619,0.0068511963,0.005935669
0.85432434,-9.744492,-0.8978119,-0.002456665,0.0135650635,0.01020813
0.92884827,-9.761246,-0.8521881,-0.0012512207,0.016311646,0.01020813
0.93847656,-9.768448,-0.8065338,-3.2043457E-4,0.019989014,0.008987427
0.89520264,-9.785217,-0.8113556,2.89917E-4,0.020889282,0.0053253174
0.86875916,-9.780426,-0.82095337,0.0018157959,0.022109985,0.0034942627
0.78700256,-9.792404,-0.84498596,0.0054779053,0.02394104,0.003189087
0.74372864,-9.782822,-0.8690033,0.009750366,0.020889282,0.0053253174
0.78941345,-9.768448,-0.8954315,0.010360718,0.012649536,0.0065460205
0.85191345,-9.751663,-0.86898804,0.010665894,0.0010375977,0.005630493
0.9024048,-9.734894,-0.8641968,0.009750366,-0.010559082,0.003189087
0.94569397,-9.730118,-0.85939026,0.0063934326,-0.017288208,0.0013580322
0.97213745,-9.739685,-0.87861633,9.0026855E-4,-0.022781372,-0.0044555664
0.96972656,-9.763657,-0.8641968,-0.002456665,-0.02003479,-0.007507324
0.94569397,-9.792404,-0.83055115,-0.0027770996,-0.019424438,-0.0078125
0.93847656,-9.787613,-0.7825165,2.89917E-4,-0.019134521,-0.005065918
0.94088745,-9.792404,-0.79452515,0.003036499,-0.017608643,-0.0014038086
0.9889679,-9.77803,-0.81614685,0.0066986084,-0.024627686,-1.6784668E-4
0.99617004,-9.761246,-0.82095337,0.010665894,-0.03012085,-0.002319336
0.9625244,-9.742096,-0.85939026,0.011581421,-0.030426025,-0.0056610107
0.9504852,-9.751663,-0.91464233,0.0063934326,-0.02645874,-0.0072021484
0.93125916,-9.754074,-0.93865967,9.0026855E-4,-0.02432251,-0.008422852
0.97213745,-9.775635,-0.8713989,0.0011901855,-0.019744873,-0.006286621
1.0153961,-9.782822,-0.82095337,0.0033416748,-0.010894775,-0.005050659
0.97694397,-9.780426,-0.8137512,0.005783081,-5.0354004E-4,-0.0041503906
0.9529114,-9.780426,-0.83776855,0.0066833496,0.0138549805,-0.0019989014
0.92884827,-9.785217,-0.8617859,0.0079193115,0.02758789,1.373291E-4
0.8831787,-9.780426,-0.82095337,0.012496948,0.026992798,0.0013580322
0.8591461,-9.780426,-0.8041382,0.013412476,0.03340149,0.003189087
0.8567352,-9.780426,-0.78012085,0.014328003,0.039505005,0.007156372
0.89038086,-9.790009,-0.7464905,0.015853882,0.040115356,0.007156372
0.89520264,-9.801987,-0.75849915,0.01890564,0.03981018,0.0053253174
0.8567352,-9.785217,-0.7561035,0.020736694,0.034622192,0.004714966
0.8423004,-9.775635,-0.7705078,0.023803711,0.03401184,0.005935669
0.83029175,-9.773224,-0.76091003,0.026245117,0.029129028,0.008377075
0.83029175,-9.785202,-0.75131226,0.028686523,0.025466919,0.011123657
0.8783722,-9.785217,-0.78012085,0.030517578,0.027282715,0.012649536
0.9024048,-9.751663,-0.7825165,0.03387451,0.026992798,0.015396118
0.9192352,-9.744492,-0.78012085,0.036315918,0.021484375,0.014785767
0.93847656,-9.734894,-0.7993469,0.03387451,0.019958496,0.016311646
0.89279175,-9.679794,-0.77770996,0.024719238,0.025772095,0.01020813
0.9913635,-9.708557,-0.79452515,0.0131073,0.034332275,0.005935669
0.92645264,-9.651047,-0.81855774,-0.0015411377,0.025772095,-0.010559082
0.86634827,-9.7061615,-0.74168396,-0.013763428,0.009292603,-0.01637268
0.9625244,-9.75647,-0.8113556,-0.02017212,-0.0038452148,-0.020629883
0.8639374,-9.914597,-0.8185425,-0.015899658,-0.008728027,-0.028579712
0.64756775,-9.950531,-0.74168396,-0.029342651,-0.035614014,-0.06736755
0.5032959,-9.653442,-0.70565796,-0.034225464,-0.050582886,-0.08570862
0.9024048,-9.952942,-0.6960602,0.008529663,-0.086013794,-0.032546997
0.53215027,-9.739685,-0.79452515,-0.021408081,-0.1131897,-0.07745361
1.0610962,-9.356354,-0.4462433,0.03540039,-0.16603088,0.01234436
1.6501465,-10.173355,-1.0059052,0.054031372,-0.041412354,0.09573364
0.99858093,-9.710953,-0.6936493,0.026550293,-0.07287598,0.021514893
1.0731201,-9.905029,-0.80174255,0.02166748,-0.04814148,0.017242432
0.93125916,-9.622299,-0.8834076,0.0231781,-0.034088135,-0.0029144287
0.642746,-9.543228,-0.8425598,0.03265381,-0.02583313,0.009597778
0.77497864,-9.893021,-0.9242401,-1.5258789E-5,-0.03439331,0.024261475
1.128418,-10.015228,-1.1236115,-0.0024719238,-0.035003662,0.030975342
1.1235962,-9.691772,-0.66722107,0.038467407,-0.05882263,0.01600647
1.3424072,-9.686981,-0.55433655,0.03692627,-0.046920776,0.037094116
1.3375854,-9.75647,-0.7705078,0.02166748,-7.9345703E-4,0.032196045
0.83509827,-9.893021,-0.7344818,0.028686523,0.030670166,-0.0010986328
0.9649353,-9.595932,-0.83296204,0.048538208,0.055099487,-0.011779785
0.8423004,-9.634277,-0.8473816,-0.009796143,0.0053100586,-0.08905029
0.70765686,-9.332382,-0.38139343,-0.10966492,-0.12846375,-0.073791504
0.5850525,-10.204514,-0.61198425,-0.13349915,-0.18252563,-1.6784668E-4
0.75335693,-10.125427,-1.0371246,-0.047973633,-0.064315796,-0.024307251
0.7172699,-9.612717,-0.41981506,0.072052,-0.08355713,-0.039276123
0.99617004,-9.921783,-0.6552124,0.0064086914,-0.07899475,-0.0044555664
1.3183594,-10.271591,-0.91464233,0.05709839,-0.013931274,0.046554565
1.1115875,-10.017624,-0.7393036,0.12428284,0.0181427,0.034942627
0.955307,-9.114349,-0.59036255,0.15238953,0.025466919,0.04899597
0.9841614,-9.5216675,-0.6936493,0.14781189,0.06640625,0.10826111
0.60910034,-9.785217,-0.7464905,0.10076904,-0.01637268,0.11619568
0.4311676,-10.0224,-0.8353729,0.008529663,-0.09303284,0.027923584
1.2894897,-9.7109375,-1.1188049,-0.0605011,-0.064331055,-0.0667572
1.3159332,-9.313217,-1.0107117,-6.2561035E-4,0.007751465,0.008972168
1.5515747,-9.878662,-0.9842987,0.053741455,-1.8310547E-4,0.11680603
0.9048157,-10.233246,-0.78733826,0.11177063,-0.027664185,0.20965576
0.092163086,-9.639069,-0.2756958,0.06930542,-0.10372925,0.06121826
0.099365234,-9.804382,-0.3501587,-0.02017212,-0.11349487,-0.022781372
0.7196808,-9.8954315,-0.9074249,-0.057739258,-0.006591797,-0.041412354
0.6187134,-9.952942,-0.79693604,-0.022003174,-0.09333801,-0.07562256
1.3976898,-10.345871,-0.91464233,0.033569336,-0.20481873,-0.044158936
1.8232574,-9.792404,-0.75849915,0.021972656,-0.4106903,0.033737183
1.0562744,-9.241348,-0.59516907,0.034194946,-0.898468,0.09939575
-0.9681244,-10.302734,-0.028289795,0.046401978,-1.0447693,0.02822876
-0.26608276,-9.471359,-0.061920166,0.07359314,-0.6709137,-0.05393982
1.9603119,-9.087997,-1.0635681,0.12704468,0.008056641,-0.0014038086
1.989151,-9.468948,-0.95547485,0.17927551,-0.0554657,0.09114075
1.097168,-9.81636,-0.9434662,0.085494995,-0.16879272,0.12780762
0.5441742,-9.931366,-0.9842987,0.0066986084,-0.113204956,0.14550781
0.6259155,-10.053558,-0.8858032,0.021057129,-0.052108765,0.09451294
0.9432831,-9.859497,-1.3157654,0.047317505,0.04197693,0.08106995
-0.0016021729,-7.264694,-0.66722107,9.0026855E-4,-0.07318115,0.058166504
-1.6028748,-6.275177,-0.73928833,-0.42488098,-0.4354248,0.10336304
-0.23963928,-11.373718,-1.1091919,-0.47528076,-0.40060425,0.019989014
1.1091766,-11.28508,-0.99871826,-0.2727661,-0.3581543,0.23928833
2.7561188,-11.747482,-0.0715332,-0.24681091,-0.42626953,0.30036926
2.0612793,-10.7747345,-0.9674835,-0.29629517,-0.30744934,0.11802673
1.3880768,-10.860992,-0.86660767,-0.36257935,-0.25582886,-0.03315735
0.52493286,-9.768448,-0.7368927,-0.30636597,-0.36273193,-0.024002075
-0.63153076,-8.910706,-0.5255127,-0.20588684,-0.26223755,0.10733032
-0.28771973,-8.75737,-0.87379456,-0.07392883,0.074035645,0.22401428
0.6547699,-9.320404,-1.62323,0.016464233,0.25790405,0.24356079
-0.18673706,-10.70047,-0.7104645,0.10290527,0.041046143,0.33518982
-0.31175232,-10.20929,-0.74168396,-0.0030822754,-0.04660034,0.27471924
0.34703064,-9.452179,-0.95066833,-0.018356323,0.035247803,0.29914856
0.803833,-9.976898,-0.890625,0.1603241,0.19560242,0.4653015
0.30856323,-10.388992,-0.7104645,0.2275238,0.32357788,0.59664917
0.07533264,-10.949631,-1.116394,0.119400024,0.28326416,0.5230408
0.40472412,-11.41684,-1.1284027,0.1539154,0.06303406,0.30433655
-0.30455017,-10.647766,-0.8305664,0.26509094,0.1995697,0.29670715
-1.4970703,-10.034378,-0.8161621,0.29899597,0.34465027,0.30555725
-0.84550476,-10.587845,-0.81614685,0.36680603,0.38252258,0.39627075
0.07772827,-10.468048,-0.9314575,0.40376282,0.39352417,0.5007324
-1.1652832,-11.232346,-0.364563,0.29533386,0.33854675,0.42774963
-1.6100769,-11.527054,-0.47505188,0.29960632,0.2447815,0.31106567
-0.93927,-10.573471,-0.6023712,0.43063354,0.39474487,0.3342743
-0.047302246,-10.41774,-0.7320862,0.5424347,0.44422913,0.41064453
0.18833923,-10.099091,-0.6095886,0.59191895,0.38467407,0.4863739
-0.18432617,-10.422531,-0.20843506,0.62275696,0.2841797,0.48913574
-0.63153076,-10.906525,-0.2252655,0.6441345,0.2594452,0.4934082
-1.6533661,-11.045471,-0.4438324,0.57022095,0.25149536,0.56884766
-1.9466705,-11.510284,-0.30934143,0.47706604,0.41459656,0.67819214
-2.4082947,-10.307541,-0.46546936,0.5427246,0.45002747,0.80708313
-2.8651123,-9.974487,-0.34295654,0.70614624,0.36053467,0.9494171
-1.3335876,-10.506393,0.17588806,0.9474335,0.1577301,1.0590668
-0.48727417,-10.542328,0.8076172,0.92300415,0.13604736,1.0978699
-0.76615906,-9.516876,1.1631317,0.7837219,0.25637817,1.0279236
-1.102768,-9.471359,0.5217743,0.71377563,0.07159424,0.9359741
-0.99938965,-9.068848,1.1222839,0.6419983,-0.33554077,0.8626709
-1.446579,-10.257202,0.78359985,0.55921936,-0.3065338,0.7918091
-1.6124878,-10.135025,0.87727356,0.39582825,-0.36610413,0.8379364
-1.2085724,-9.200623,-0.6408081,0.27211,-0.28149414,0.9164276
-0.6796112,-8.929871,1.3961029,0.39369202,-0.8325043,1.0108185
-2.8987732,-10.745987,1.0982666,0.5167694,-0.6871033,1.1791077
-4.278839,-9.34198,2.839737,-0.52415466,0.556015,1.5868683
-4.9328003,-7.660034,1.5714722,-0.4539032,1.3284607,2.3736725
-5.1059113,-11.428833,-0.34536743,-0.06538391,1.847702,2.9207
-6.098877,-13.220978,-0.7561035,-0.3118744,1.2401886,2.7102509
-5.151596,-8.8508,0.84365845,-0.6994629,-0.19963074,1.9375
-3.6513214,-6.337494,1.8164673,-0.70558167,-0.8963318,1.4955444
-2.5693817,-5.3072205,2.5851288,-0.2284851,-1.2103119,1.0951233
-2.942047,-6.354248,1.4177399,0.16459656,-0.7750702,0.28051758
-5.346344,-7.8397217,1.8885345,0.15940857,-0.9650574,-0.45436096
-6.714386,-8.141617,3.5387268,0.012191772,-1.7579651,-0.70085144
-6.466736,-7.307831,5.328232,0.12062073,-2.5233765,-0.6757965
-6.151764,-7.137726,5.7461853,0.52349854,-2.7029724,-0.78453064
-5.560318,-6.9196777,5.995987,0.9810333,-2.651657,-0.88838196
-5.6396637,-6.886139,6.012802,1.3255615,-2.4681091,-1.000473
-5.9978943,-7.2383423,5.2081146,1.5494537,-2.0667572,-1.108902
-6.259964,-7.4156494,5.3042145,1.5885468,-1.9708557,-1.166626
-6.048401,-6.840622,6.3250732,1.7168274,-2.2906342,-1.1070709
-5.6492767,-6.77594,6.829483,1.934906,-2.4638214,-1.0536194
-4.978485,-6.871765,8.042526,2.1224518,-2.3419495,-0.9809265
-4.418289,-6.9436493,8.0473175,2.419632,-2.0792847,-0.85050964
-4.439911,-7.3820953,7.684616,2.6768188,-1.5911865,-0.7130585
-4.0143585,-7.1568756,6.620514,2.6575623,-1.0062866,-0.5487366
-3.504654,-6.7591553,6.140106,2.5836487,-0.7536926,-0.40914917
-3.1127625,-6.6513367,7.016861,2.388794,-0.83647156,-0.40274048
-2.5092773,-6.5483246,7.9007874,2.2272034,-0.87709045,-0.342865
-2.2400055,-5.7911987,7.778305,2.3222046,-0.8031769,-0.27568054
-2.2953033,-5.9900665,6.096878,2.5665588,-0.54385376,-0.2481842
-1.436966,-6.373413,5.071213,2.495697,-0.40213013,-0.11227417
-0.7084656,-5.8463135,5.767807,2.0851898,-0.46200562,4.4250488E-4
-0.73490906,-5.3407745,6.8727264,1.8215942,-0.57958984,-0.002609253
-0.92004395,-4.777725,7.670212,1.6603241,-0.49375916,-0.052703857
-1.2999268,-5.101181,8.100159,1.5512848,-0.25308228,-0.07989502
-1.1604614,-4.8280487,7.703827,1.4709473,0.016311646,-0.030715942
-0.66038513,-4.078125,6.91597,1.4895782,0.023025513,0.06121826
-0.4728546,-3.4216309,6.5700684,1.3826904,-0.24391174,0.038604736
-0.40072632,-3.2203827,7.117737,1.202774,-0.6941376,-0.061584473
-0.38630676,-3.0430908,8.301941,1.0809174,-1.1192932,-0.1348877
-0.14585876,-3.0095367,8.0473175,1.0186005,-0.92993164,-0.090911865
0.73651123,-2.1901398,6.0584564,1.0183105,-0.6605377,0.035858154
1.1885376,-2.0391846,6.0056,1.0228882,-1.1593018,-0.031341553
0.75094604,-2.5471344,8.369186,0.7253876,-1.7723083,-0.20574951
0.31817627,-2.7627563,10.795242,0.22477722,-1.4925385,-0.22071838
0.5369568,-2.4824219,11.357315,-0.04675293,-0.5945587,-0.053329468
0.41914368,-2.515976,10.679932,0.04762268,0.0037841797,0.043792725
0.13542175,-2.6285858,10.129883,0.3475647,-0.12297058,0.012023926
0.121017456,-1.9625092,10.02179,0.5858002,-0.51667786,0.06364441
0.063308716,-1.8427277,9.788788,0.5732727,-0.5163727,0.13572693
0.5826416,-1.6079254,9.296387,0.39704895,-0.2552185,0.2768402
1.0851288,-1.7780457,9.207489,0.23912048,-0.10218811,0.34188843
1.1404419,-1.5648041,10.163498,0.12460327,-0.25950623,0.30462646
1.2389984,-1.3251953,10.790436,0.19606018,-0.40916443,0.24812317
1.0731201,-1.3347931,10.54303,0.3500061,-0.31784058,0.21025085
0.469635,5.189331,10.764008,-0.41604614,-1.8135376,0.18153381
0.55378723,2.9467316,10.456558,-0.5088959,-1.2102966,-0.096710205
-0.58584595,-0.33807373,8.285126,-0.4719391,-0.018493652,-0.53744507
-2.2496185,2.6879883,7.92482,-0.9395447,0.32481384,-0.2084961
-0.9176483,2.7382965,7.7662964,-1.1988678,-0.1586914,0.592041
0.029647827,2.755066,8.9841,-1.2150574,-0.73535156,1.0801392
0.056106567,2.6520386,9.137848,-1.07518,-1.0267334,1.0444031
0.16670227,2.1992035,8.952896,-1.0571442,-0.64097595,0.84465027
0.063308716,1.1426086,9.8728485,-1.2868347,-0.14646912,0.5697479
-0.3574524,0.89823914,8.373993,-1.7342987,0.43049622,0.46681213
0.10418701,1.2887726,6.879944,-2.2251282,0.6708679,0.6674957
0.59225464,1.2120972,7.319504,-2.4618378,0.40667725,0.7355957
1.1524506,0.6945648,7.951248,-2.2846985,0.102767944,0.534317
0.6956482,-0.4938202,9.747955,-1.8436432,-0.50657654,0.26553345
0.02003479,-2.92807,10.759216,-1.4627686,-0.52674866,0.15618896
-0.85513306,-3.2491302,9.733536,-1.350357,0.2371521,0.46865845
-0.7012634,-1.3347778,8.366791,-1.4184723,0.9280548,0.9390106
-0.76856995,-0.4506836,7.4996643,-1.8231812,1.0792389,0.80859375
-1.5836334,-2.3746185,8.189041,-2.2947845,0.7915344,0.25971985
-2.0740967,-5.633072,10.807251,-2.4282684,0.22251892,0.0016174316
-2.3986664,-6.3997803,11.035431,-2.3424377,0.37828064,0.412735
-2.2063293,-4.931061,9.659073,-2.144516,0.7273865,1.0679016
-2.1702728,-3.7522736,8.261108,-2.0256958,0.6418762,1.2450562
-2.5357208,-4.0134277,9.068176,-2.1982727,0.1776123,0.98880005
-3.5527344,-5.3551483,11.285248,-2.5550232,-0.17272949,0.65678406
-4.269211,-6.052353,13.017105,-2.826233,-0.035888672,0.5718689
-4.2331543,-5.482132,13.989929,-2.7761536,0.3431549,0.7169647
-4.1201477,-4.806488,13.341385,-2.2657623,0.7157898,0.8195801
-4.4567566,-4.3752136,12.198013,-1.7477417,1.0123596,0.7902527
-5.1708374,-3.62529,11.001816,-1.5116425,1.1577454,0.7691803
-5.9882812,-3.999054,11.25882,-1.5012665,0.9573822,0.74076843
-6.3729553,-4.772934,13.2717285,-1.4404907,0.5762024,0.8452301
-5.70459,-4.8927307,16.074875,-1.1707916,0.48335266,1.1748047
-4.8318176,-4.006256,16.26944,-0.6909485,1.2014313,1.515976
-3.990326,-3.1029816,12.57753,-0.012573242,2.289688,1.6760101
-2.3481903,-2.4464874,8.825592,0.47276306,2.8449707,1.5966034
-2.836258,-2.3674316,7.4227905,0.45962524,2.6782074,1.2071838
-2.8530884,-2.5255585,6.317871,0.26719666,2.2304382,0.94358826
-1.9779358,-1.9074097,5.0808105,0.22840881,1.5645905,0.7618561
-2.802597,-2.882553,6.858322,0.13769531,0.64889526,0.34431458
-2.5549622,-4.188324,7.2666626,0.038742065,0.5114441,0.25086975
-3.9710846,-4.2194824,6.298645,0.01612854,0.57803345,0.286911
-5.1660156,-4.6795044,6.913574,-0.029067993,0.3761444,0.37547302
-4.9929047,-4.8136597,7.821533,-0.0034179688,0.2182312,0.6931305
-5.9017334,-5.043686,6.5604706,-0.073349,0.47113037,0.85531616
-6.433075,-4.890335,5.325821,-0.2422638,0.83888245,0.9206848
-6.721588,-4.4806366,6.034424,-0.35679626,0.8865204,0.8745575
-6.810547,-4.610016,7.574112,-0.4667511,0.8165741,0.81378174
-7.5799255,-5.7552643,7.631775,-0.62008667,0.8043518,0.65586853
-8.084808,-6.471649,7.3339233,-0.5757904,0.70632935,0.6231842
-8.717148,-6.0499725,6.793457,-0.37420654,0.6562195,0.8388214
-9.217239,-5.2401276,6.577286,-0.3024292,0.80955505,1.0709534
-9.034515,-3.9128113,8.75592,-0.2917328,1.0270233,1.2609406
-9.072983,-2.527954,8.940872,0.040267944,1.5022888,1.4542694
-8.988831,-1.2796783,6.824692,0.44526672,2.0291595,1.5834656
-6.9115295,-0.9825897,3.2264557,0.6444092,2.4271393,1.5456085
-6.861038,-1.0592651,1.1174927,0.27819824,2.6345367,1.1628876
-7.3659515,-0.9610138,-0.4726715,-0.16223145,2.5431976,1.0895844
-7.596756,0.44778442,-1.0947876,-0.47254944,1.982727,1.1870117
-7.8131256,1.0204163,-0.5807495,-0.48936462,0.5627594,1.1638031
-7.808319,-0.5177765,1.8308868,-0.39772034,-0.8345947,0.84614563
-6.906723,-4.439911,8.75592,-0.44293213,-1.5071716,0.6207428
-5.829605,-4.4423065,10.065018,-0.28318787,-0.36026,0.79637146
-6.3008423,-1.2844696,8.153015,-0.4689026,1.7915344,1.243515
-7.8612213,3.2366486,4.658066,-0.46003723,3.1119232,1.0938568
-7.4188385,1.9404602,-0.7705078,-0.28746033,3.2951813,0.14427185
-9.243698,-1.0664368,-2.3270264,0.16061401,1.9057617,-0.67308044
-11.967743,-3.5965424,-1.4142609,0.3496704,0.20632935,-0.8881073
-12.2947235,-5.8582916,-0.78492737,-0.10391235,-0.57284546,-0.818161
-10.64299,-4.5021973,-0.15559387,-0.6332092,-0.7838898,-0.11444092
-8.493546,-0.697464,0.97576904,-0.90475464,-0.97265625,0.6204376
-6.935562,0.22976685,1.3744965,-0.75997925,-1.0853577,0.54071045
-6.4811554,-1.490509,4.0359344,-0.868103,-1.0016785,-0.39117432
-5.949814,-1.4545746,4.5595856,-0.87849426,-0.5694885,-1.2628784
-5.2982483,-2.1805573,2.169571,-0.7337036,-0.03741455,-1.8410645
-6.098877,-5.256912,0.6418762,-0.52388,-0.13179016,-2.3768005
-8.46228,-7.3485565,-0.5519409,-0.22790527,-0.957077,-2.813263
-8.568069,-7.597748,1.1799316,-0.37696838,-1.9479065,-2.9623108
-8.714737,-7.521057,7.60054,-1.1060333,-1.9088135,-2.9552917
-8.3517,-6.986786,4.15123,-0.8601532,-0.7881775,-2.703003
-7.2000427,-5.8606873,2.5322723,-0.41116333,-0.75305176,-2.2427063
-6.625412,-5.1443024,3.0415192,-0.72698975,-0.56825256,-1.5915222
-8.394974,-5.92778,3.2504883,-1.1313782,-0.74786377,-1.023407
-8.080017,-6.210495,3.7477112,-1.3619843,0.09056091,-0.12054443
-6.9451904,-6.2919617,2.5610962,-1.366272,0.94944763,0.45030212
-6.344101,-5.8535156,0.3944702,-1.0263214,1.4008789,0.54193115
-7.046173,-5.877472,1.9173431,-0.73065186,0.50076294,-0.19111633
-8.404587,-5.520462,3.2216644,-0.3060913,-0.48457336,-1.2121735
-8.031921,-7.013138,1.3744965,0.036605835,0.060012817,-1.9962311
-6.4595184,-10.161377,0.72114563,0.0750885,0.2805481,-2.0786896
-6.529251,-6.6944733,3.2672882,0.26628113,-0.5801697,-1.5032501
-5.7502594,-5.448593,3.3321533,0.46879578,-0.87431335,-1.3651886
-5.4593353,-5.06044,2.609146,0.27056885,-0.45066833,-1.5341034
-4.5745544,-6.248825,2.1887817,0.07569885,-0.27534485,-2.276001
-1.963501,-5.278488,3.7957458,-0.0021972656,-0.90789795,-2.6819305
-0.61950684,-5.3072357,3.8173523,0.049423218,-1.4827423,-2.847168
-3.6368866,-7.0730286,0.96855164,-0.38581848,-0.4363098,-3.3697662
-3.8124084,-10.995163,1.3144531,-1.4859924,0.08354187,-3.36763
-3.3916626,-11.594147,2.3665314,-1.6961365,-0.37919617,-2.706665
-3.2089386,-12.574081,2.5058594,-1.5229492,-0.4118805,-1.8526611
-3.1560364,-13.508484,2.0926971,-1.2440796,-0.33551025,-1.5261536
-1.8408813,-12.787308,1.276001,-1.0345612,-0.50808716,-1.1947632
-1.0114136,-11.58934,0.99256897,-0.77249146,-0.4131012,-0.62268066
-1.6581726,-11.469543,1.590683,-0.22027588,-0.26863098,-0.11199951
-3.5936127,-10.147003,2.6571808,0.0030059814,-0.5093231,0.011703491
-1.7134552,-9.159882,1.4081421,-0.14207458,-0.40789795,0.03186035
-0.9440918,-9.555206,0.5698242,-0.30151367,-0.2967224,-0.09642029
-1.8505096,-9.58876,1.9509888,-0.2694397,-0.8837738,-0.24302673
-2.0043793,-8.378815,1.470581,-0.18545532,-1.026413,-0.25585938
-2.2400055,-8.230255,1.1511078,-0.08068848,-0.5972748,-0.19232178
-2.3337708,-8.795685,1.3024445,0.06011963,-0.41615295,-0.29800415
-1.7423096,-8.949036,1.6651459,0.031707764,-0.7338104,-0.6657562
-0.3550415,-9.313217,1.1799316,-0.15307617,-0.76434326,-0.94369507
-0.40553284,-10.012833,1.2183685,-0.23278809,-0.7484741,-0.9137573
-1.0210266,-10.137405,1.9846191,-0.25753784,-0.8257446,-0.69018555
-1.6533508,-9.576782,1.5498505,-0.3748169,-0.73228455,-0.47454834
-1.143631,-9.725311,1.2327728,-0.15185547,-0.71058655,-0.52342224
0.024841309,-9.600739,1.2616119,-0.18421936,-0.84254456,-0.5643463
0.21238708,-9.866684,1.720398,-0.48905945,-0.9622803,-0.44674683
-0.14826965,-9.835541,1.2279663,-0.5806885,-0.59788513,-0.12940979
-0.3478241,-9.013733,0.5650177,-0.24104309,0.103393555,0.23742676
-1.0859375,-8.290146,1.3480682,-0.16590881,0.26679993,0.4112091
-1.2782745,-9.0616455,1.2327728,-0.5926056,0.37858582,0.10456848
0.099365234,-8.994553,0.9373169,-0.6637573,0.4668579,-0.18164062
0.36386108,-9.052063,0.79081726,-0.8256378,0.49649048,-0.24119568
0.63793945,-9.466553,-0.102752686,-0.757843,0.5218353,-0.34228516
0.27729797,-10.669312,0.1638794,-0.52479553,-0.14370728,-0.5463257
-0.059310913,-10.511185,0.26957703,-0.41635132,-0.5090027,-0.5551758
0.56581116,-10.156586,0.3176117,-0.41207886,-0.27687073,-0.3499298
0.05128479,-10.089493,0.23594666,-0.37176514,-0.024887085,-0.27845764
-0.7156677,-10.688477,0.42089844,-0.43162537,-0.11315918,-0.42658997
-0.3622589,-10.331497,-0.009063721,-0.3931427,-0.049316406,-0.44033813
0.68603516,-9.509689,-0.1363678,-0.28623962,4.5776367E-4,-0.35054016
0.5754242,-9.449783,-0.033081055,-0.36779785,0.17301941,-0.33099365
0.42636108,-9.955322,-0.17001343,-0.40444946,0.27259827,-0.39085388
0.5393677,-9.859497,-0.43182373,-0.44934082,0.31748962,-0.3697815
0.17391968,-9.28447,-0.5182953,-0.36749268,0.09881592,-0.4015503
0.46723938,-9.524063,-0.2612915,-0.20256042,-0.1421814,-0.5279999
1.1260071,-9.243729,-0.5663452,-0.21659851,0.052078247,-0.47485352
0.7653656,-9.761261,-0.33335876,-0.263031,0.034973145,-0.4959259
0.6667938,-10.288361,-0.20603943,-0.3271637,0.050247192,-0.4827881
0.8879852,-10.055954,-0.19642639,-0.40504456,0.038330078,-0.37954712
1.2534485,-9.447403,-0.76091003,-0.46644592,0.10583496,-0.24577332
1.2919159,-9.514481,-1.0659637,-0.45729065,0.2539673,-0.26350403
0.7172699,-11.086212,-1.0371246,-0.30976868,0.18463135,-0.33831787
-0.5377655,-12.629181,-0.328537,-0.2211914,-0.043518066,-0.27998352
1.0250244,-11.019119,-0.6191864,-0.11367798,-0.1876831,-0.043273926
1.9314575,-10.6094055,-0.76571655,0.0042266846,-0.2206726,0.023620605
1.9049988,-10.736389,-0.5615387,0.050933838,-0.12567139,-0.044189453
1.998764,-11.138916,-0.62158203,0.079956055,0.04232788,-0.08206177
2.474823,-11.335373,-0.53752136,0.12944031,0.14677429,-0.062820435
2.0083923,-10.9448395,-0.513504,0.31330872,0.3095703,-0.1318512
1.5708008,-11.045471,-0.6624298,0.53749084,0.3440857,-0.10435486
0.45761108,-9.253311,-0.17481995,0.6184387,0.3889923,-0.023727417
-0.2781067,-7.123337,-0.2540741,0.5402527,0.48275757,0.34036255
-1.2830963,-7.9475403,-0.2612915,0.15142822,0.6971588,0.24780273
-0.34301758,-9.2317505,-0.064315796,-0.0034332275,0.1892395,-0.038391113
0.1282196,-9.730118,-0.16279602,-0.08467102,-0.062454224,-0.07809448
0.16670227,-9.639069,-0.21565247,-0.11795044,-0.08016968,-0.08818054
0.96972656,-10.135025,-0.7344818,-0.055648804,-0.18888855,0.117996216
0.741333,-9.787628,-0.1363678,0.11201477,-0.064590454,0.06088257
1.2558441,-9.643845,-0.09555054,-0.10757446,-0.3070984,-0.07839966
1.2414093,-9.495316,-0.49186707,-0.22944641,-0.3608551,-0.084198
1.3952942,-9.658249,-0.6576233,-0.15034485,-0.32450867,-0.013336182
2.4147186,-10.6046295,-1.0059052,-0.09719849,-0.17912292,0.059661865
1.67659,-9.787613,-0.82336426,-0.15950012,-0.18951416,0.031555176
1.3856659,-9.53125,-0.83776855,-0.033966064,-0.13697815,0.052627563
1.8448944,-9.701355,-1.0275421,-0.011993408,-0.086883545,0.05079651
1.9362488,-9.5264435,-1.1404266,-0.060546875,-0.023345947,0.028503418
1.5732117,-9.629471,-1.0491486,-0.048324585,0.005050659,0.011703491
1.3135529,-9.7948,-0.93865967,-0.033050537,0.023376465,0.004058838
1.2005463,-9.96492,-0.72488403,-0.04588318,0.0062713623,1.0681152E-4
1.1500549,-9.804382,-0.64801025,-0.061157227,0.02520752,0.0031585693
1.1765137,-9.691772,-0.5975647,-0.037338257,0.049957275,0.0055999756
1.2173767,-9.504898,-0.6071625,-0.02204895,0.038330078,0.009567261
1.2149658,-9.72052,-0.57595825,-0.05319214,0.030395508,0.012023926
1.3688507,-9.926575,-0.6408081,-0.04953003,0.05055237,0.017822266
1.4962769,-9.861893,-0.6408081,-0.035476685,0.08140564,0.019958496
1.4481812,-9.902618,-0.5182953,-0.028152466,0.08078003,0.01965332
1.2534332,-9.766052,-0.44143677,-0.03730774,0.09513855,0.01965332
1.1139832,-9.502487,-0.539917,-0.05166626,0.114089966,0.022094727
1.1091919,-9.600739,-0.7104645,-0.057174683,0.057281494,0.026367188
0.9793396,-9.768448,-0.63119507,-0.084350586,0.10217285,0.030639648
0.7196808,-9.754074,-0.4102173,-0.08251953,0.21792603,0.023620605
0.68603516,-9.821152,-0.36218262,-0.08404541,0.24205017,0.03125
0.78941345,-9.811584,-0.49186707,-0.08679199,0.2588501,0.036743164
0.8615265,-9.775635,-0.57115173,-0.092285156,0.24908447,0.03857422
0.82788086,-9.7708435,-0.51109314,-0.09474182,0.21670532,0.036743164
0.7004547,-9.818756,-0.46066284,-0.08404541,0.18310547,0.03277588
0.6547699,-9.81636,-0.6023712,-0.07763672,0.16386414,0.030334473
0.7653656,-9.787628,-0.66722107,-0.08068848,0.14157104,0.028808594
0.77497864,-9.806778,-0.7200775,-0.07519531,0.10247803,0.022994995
0.7822113,-9.81636,-0.68885803,-0.067855835,0.056655884,0.020263672
0.86634827,-9.818756,-0.6816406,-0.054718018,0.034057617,0.021484375
0.99617004,-9.790009,-0.7825165,-0.04220581,0.03527832,0.024230957
1.0562744,-9.77803,-0.7681122,-0.034561157,0.02947998,0.02178955
1.0226288,-9.792404,-0.8449707,-0.026626587,0.022460938,0.016296387
0.9408722,-9.785217,-0.9218445,-0.022659302,0.019088745,0.018722534
0.90722656,-9.770828,-0.890625,-0.024490356,0.0129852295,0.021484375
0.97454834,-9.749268,-0.8882141,-0.018066406,0.009628296,0.020263672
0.9937744,-9.744492,-0.88101196,-0.017150879,0.014205933,0.018417358
0.9625244,-9.746887,-0.87861633,-0.022949219,0.0077819824,0.015670776
0.96492004,-9.746887,-0.9314575,-0.03211975,0.007797241,0.014450073
1.0202332,-9.775635,-0.9722748,-0.028457642,0.016342163,0.017196655
1.085144,-9.710953,-0.9362488,-0.020812988,0.027954102,0.022094727
1.0442657,-9.763657,-0.87379456,-0.019897461,0.03314209,0.015060425
0.955307,-9.766052,-0.84017944,-0.018066406,0.045654297,0.015060425
0.96972656,-9.77803,-0.9482727,-0.018066406,0.060928345,0.013839722
0.93367004,-9.737289,-1.0035095,-0.014709473,0.07009888,0.015365601
0.8423004,-9.773224,-0.9410553,-0.017150879,0.052993774,0.012023926
0.8326721,-9.7708435,-0.890625,-0.015319824,0.041381836,0.013244629
0.9096222,-9.715729,-0.8834076,-0.0134887695,0.042907715,0.018722534
0.9625244,-9.734909,-0.93626404,-0.008590698,0.04750061,0.014144897
0.924057,-9.7708435,-1.0131073,-0.012573242,0.03741455,0.006210327
0.96492004,-9.787613,-0.9410553,-0.025100708,0.019088745,0.008041382
0.9528961,-9.766052,-0.8521881,-0.03211975,0.008407593,0.010787964
0.9048157,-9.763657,-0.8569946,-0.023254395,0.021530151,0.013534546
0.8495178,-9.766052,-0.90263367,-0.016845703,0.037719727,0.016586304
0.8447113,-9.790009,-0.99871826,-0.012268066,0.049926758,0.017807007
0.8711548,-9.782822,-0.9842987,-0.015319824,0.0368042,0.017196655
0.8495178,-9.773239,-0.8858032,-0.019897461,0.009017944,0.01109314
0.7701721,-9.758865,-0.8521881,-0.0134887695,-0.004119873,0.0074310303
0.78941345,-9.751663,-0.8978119,-0.0076904297,0.004119873,0.008956909
0.8374939,-9.782822,-0.93865967,-0.0067749023,0.009628296,0.007736206
0.9096222,-9.77803,-0.9314575,-0.0043182373,0.005355835,0.0031585693
0.90000916,-9.754074,-0.9410553,-0.0052490234,-4.5776367E-4,-5.0354004E-4
0.7701721,-9.763657,-0.9410553,-0.011962891,-0.012359619,-1.9836426E-4
0.71247864,-9.775635,-0.9338379,-0.014709473,-0.01939392,7.171631E-4
0.78700256,-9.770828,-0.85939026,-0.011962891,-0.012680054,0.002243042
0.8639374,-9.773224,-0.89302063,-0.005554199,0.005645752,0.0025482178
0.835083,-9.785202,-0.9794922,-0.009216309,0.012374878,-0.0014343262
0.76297,-9.7948,-0.90263367,-0.015319824,-0.009017944,-0.001739502
0.8399048,-9.780426,-0.85939026,-0.011047363,-0.01725769,-5.0354004E-4
0.88557434,-9.797195,-0.87620544,0.0023956299,-0.008392334,-0.0011291504
0.90000916,-9.797195,-0.93626404,0.010940552,0.004119873,-0.0026397705
0.924057,-9.785217,-0.9218445,0.006362915,0.01512146,-0.001739502
0.9673157,-9.75647,-0.9002228,0.0084991455,0.023971558,0.0013275146
0.95770264,-9.775635,-0.91703796,0.010635376,0.020004272,0.0031585693
0.9505005,-9.81398,-0.9747009,0.011856079,0.017868042,0.0043792725
0.97454834,-9.83313,-0.96987915,0.013381958,0.018173218,0.0071258545
1.0009918,-9.766052,-0.9867096,0.015213013,0.017562866,0.008651733
1.0394592,-9.698959,-0.95547485,0.017349243,0.019088745,0.008651733
0.93847656,-9.670227,-0.95066833,0.019195557,0.030700684,0.01109314
0.89279175,-9.744492,-0.95547485,0.010635376,0.038024902,0.010482788
0.8374939,-9.763657,-0.93865967,-0.0015869141,0.038024902,-5.187988E-4
0.70526123,-9.830734,-1.065979,-0.0037231445,0.030395508,-0.008453369
0.53456116,-9.698959,-0.66482544,-0.029678345,-0.035583496,-0.0029449463
0.7268982,-9.639069,-0.854599,-0.018676758,0.0025939941,0.003768921
0.76297,-9.792404,-0.9314575,-0.016845703,-0.015426636,-0.004486084
0.82788086,-9.775635,-0.8257599,-0.0064697266,-0.03955078,-0.009979248
0.8399048,-9.763657,-0.83055115,-0.0076904297,-0.041992188,-0.014251709
0.8591461,-9.782822,-0.83055115,-0.0037231445,-0.046569824,-0.020980835
0.8855896,-9.758865,-0.87620544,-9.765625E-4,-0.028839111,-0.020355225
0.8567352,-9.773239,-0.854599,-0.003112793,-0.022735596,-0.015167236
0.90722656,-9.7708435,-0.83296204,5.493164E-4,-0.017852783,-0.009674072
1.0346375,-9.75647,-0.8882141,-6.1035156E-5,-0.011123657,-0.0050811768
1.1404419,-9.766052,-0.96507263,0.0060272217,0.0029144287,-0.004180908
1.1115875,-9.785217,-0.9434662,0.0020751953,0.008728027,-0.00630188
0.94569397,-9.75885,-0.8257599,-0.007095337,0.006576538,-0.00630188
0.77497864,-9.713333,-0.7248688,-0.011978149,0.02154541,-0.0029449463
0.74372864,-9.734909,-0.7536926,-0.006790161,0.05178833,0.0031585693
0.74612427,-9.81636,-0.8281708,-0.005874634,0.060028076,0.0043792725
0.741333,-9.849915,-0.81373596,-0.0067749023,0.036514282,0.0016326904
0.73651123,-9.797195,-0.79693604,-0.007385254,-0.004714966,-0.006011963
0.7268982,-9.7708435,-0.8353729,0.001159668,-0.034957886,-0.011199951
0.88557434,-9.737289,-0.88342285,0.009094238,-0.038619995,-0.0069274902
1.1115875,-9.71814,-0.94825745,0.0020751953,-0.031906128,-0.0035705566
1.2077637,-9.689377,-0.9218292,-0.005264282,-0.026397705,-0.0017242432
1.1885223,-9.730118,-0.962677,-0.008621216,-0.027618408,-0.007843018
1.0755157,-9.7061615,-1.0275269,-0.013809204,-0.012969971,-0.010894775
0.9769287,-9.710953,-1.044342,-0.019302368,0.02734375,-0.01272583
0.79422,-9.751663,-1.0491333,-0.028778076,0.062469482,-0.011810303
0.75094604,-9.7948,-1.0299377,-0.037322998,0.07102966,-0.008453369
0.82066345,-9.727707,-0.9938965,-0.042526245,0.06613159,-0.0011138916
0.81344604,-9.651047,-0.9434662,-0.036102295,0.0743866,-1.9836426E-4
0.7533417,-9.737289,-0.93865967,-0.03488159,0.07896423,-0.009979248
0.6114807,-9.792404,-0.95066833,-0.03793335,0.07774353,-0.020355225
0.56822205,-9.81398,-0.962677,-0.04649353,0.05758667,-0.025558472
0.7317047,-9.768448,-0.95066833,-0.0473938,0.04260254,-0.021881104
0.8711548,-9.725311,-0.9218292,-0.038223267,0.04321289,-0.01638794
0.9024048,-9.715729,-0.91223145,-0.037002563,0.043518066,-0.020355225
0.8495331,-9.785202,-0.94825745,-0.034561157,0.051467896,-0.02708435
0.8639374,-9.818756,-1.0179291,-0.029678345,0.05055237,-0.03227234
0.9024048,-9.780426,-0.96987915,-0.030593872,0.040771484,-0.031051636
0.8999939,-9.744492,-0.89302063,-0.022033691,0.046279907,-0.022506714
0.9625244,-9.746887,-0.8858032,-0.012573242,0.06643677,-0.014251709
0.96972656,-9.77565,-0.9002228,-0.012573242,0.079559326,-0.014862061
0.86154175,-9.830734,-0.87620544,-0.007385254,0.07345581,-0.025558472
0.8567352,-9.813965,-0.8185425,0.015838623,0.06765747,-0.027999878
0.9889679,-9.749283,-1.0635529,0.04484558,0.0856781,-0.014251709
1.2294006,-9.663025,-1.4358673,0.05583191,0.10369873,0.008651733
1.2919159,-9.77803,-1.2773438,0.02407837,0.0368042,0.011703491
1.0851288,-9.749268,-0.91944885,-0.01838684,-0.037719727,-0.0047912598
0.9601135,-9.62709,-0.9410553,-0.026626587,-0.042297363,-0.023422241
0.9504852,-9.651047,-1.2028809,-0.0315094,-0.023361206,-0.028915405
0.8783722,-9.754074,-1.0827789,-0.048614502,-0.0368042,-0.023422241
0.97213745,-9.732513,-0.9410553,-0.054107666,-0.04046631,-0.018218994
1.1524506,-9.708557,-0.96507263,-0.05014038,-0.025802612,-0.011199951
1.1981506,-9.698959,-1.0611572,-0.048614502,-0.011444092,-0.007537842
1.1789093,-9.720535,-1.0203247,-0.050445557,-4.5776367E-4,-0.012420654
1.1500549,-9.766052,-1.0251312,-0.048919678,0.012374878,-0.015777588
1.1235962,-9.763657,-0.9963074,-0.047698975,0.023971558,-0.011199951
1.106781,-9.75647,-0.94825745,-0.044647217,0.022750854,-0.010284424
1.0490723,-9.763657,-0.962677,-0.04219055,0.038635254,-0.008453369
0.97935486,-9.770828,-1.080368,-0.034561157,0.0526886,-0.0069274902
0.9264679,-9.787613,-1.0875854,-0.02418518,0.05482483,-0.008758545
0.92645264,-9.775635,-1.092392,-0.014404297,0.042907715,-0.008758545
0.86875916,-9.768448,-1.1332092,-0.007080078,0.018173218,-0.009063721
0.8110504,-9.770828,-1.1140137,-0.0076904297,4.5776367E-4,-0.008148193
0.7990265,-9.75647,-1.0803833,-9.613037E-4,-0.007171631,-0.0093688965
0.8783722,-9.758865,-1.116394,0.011550903,0.0016784668,-0.008758545
0.9528961,-9.730118,-1.1308289,0.023468018,0.012069702,-0.0069274902
0.89520264,-9.722931,-1.102005,0.025604248,0.0035095215,-0.010894775
0.85432434,-9.737289,-1.1980743,0.028045654,4.5776367E-4,-0.013031006
0.8735504,-9.754074,-1.2845459,0.026519775,-0.005645752,-0.011199951
0.9528961,-9.742096,-1.2173004,0.0262146,-0.01878357,-0.010894775
0.97213745,-9.746872,-1.092392,0.031097412,-0.029769897,-0.0093688965
0.9673157,-9.71814,-1.0611572,0.034454346,-0.02671814,-0.008453369
1.0033875,-9.727707,-1.0779877,0.03414917,-0.020614624,-0.0063171387
1.0635071,-9.732498,-1.0971832,0.03475952,-0.014511108,-0.0026397705
1.1740875,-9.737289,-1.080368,0.037200928,-0.0059509277,0.0034637451
1.3159485,-9.766052,-1.0755768,0.035980225,0.005340576,0.009262085
1.419342,-9.758865,-1.0491486,0.03048706,0.010238647,0.010177612
1.4433746,-9.749268,-1.0395355,0.023773193,0.014511108,0.006210327
1.3183594,-9.689377,-1.0179291,0.020706177,0.019699097,7.171631E-4
1.1572723,-9.766052,-1.0010986,0.019805908,0.01940918,-0.0047912598
1.0226288,-9.785217,-0.9842987,0.017959595,0.021240234,-0.006011963
0.9408722,-9.763657,-0.926651,0.01612854,0.014511108,-0.0038604736
0.8759613,-9.790009,-0.8882141,0.021636963,0.014205933,4.119873E-4
0.8735504,-9.780426,-0.91464233,0.026519775,0.016342163,0.004989624
0.89038086,-9.7948,-0.9578705,0.029556274,0.0099487305,0.0049743652
0.9432831,-9.768448,-0.9963074,0.031692505,0.001083374,0.005279541
0.94569397,-9.732513,-0.99871826,0.03565979,-0.007461548,0.0034484863
0.95770264,-9.68219,-0.99150085,0.039627075,-0.011123657,0.004058838
0.96492004,-9.725311,-0.9963074,0.04055786,-0.014190674,0.0013122559
0.9625244,-9.744492,-1.0035095,0.03413391,-0.027923584,-0.0032653809
0.9673157,-9.734894,-0.99150085,0.031082153,-0.037704468,-0.0035858154
1.0009918,-9.660629,-1.0035095,0.023452759,-0.0398407,-0.0029754639
1.0851288,-9.6462555,-1.0563507,0.014892578,-0.029159546,-5.187988E-4
1.1428375,-9.660629,-1.0611572,0.0060424805,-0.01876831,-2.1362305E-4
1.1500549,-9.739685,-1.0515594,-0.002822876,-0.013885498,-0.004196167
1.147644,-9.768448,-1.0011139,-0.009231567,-0.014801025,-0.009994507
1.106781,-9.737289,-0.9674835,-0.010757446,-0.0028839111,-0.010604858
1.0250244,-9.746887,-0.9458618,-0.008926392,0.0059814453,-0.008163452
1.0057831,-9.742096,-0.9602661,-0.005569458,0.013305664,-0.004486084
1.0250244,-9.768448,-0.99150085,-0.0046539307,0.016357422,-0.0017547607
1.0418549,-9.7708435,-0.962677,-0.0016021729,0.0178833,-0.002670288
0.99858093,-9.754074,-0.93865967,8.544922E-4,0.0126953125,-0.0048065186
0.9480896,-9.754074,-0.9218292,0.001159668,0.0056610107,-0.0060272217
0.9096222,-9.758865,-0.9458618,0.0029907227,0.0078125,-0.0026550293
0.9192352,-9.763657,-0.9674835,0.00390625,0.0035247803,9.1552734E-5
0.94569397,-9.766052,-0.96987915,0.0057373047,-0.0037994385,-0.0014343262
0.95770264,-9.766052,-0.9410553,0.0115356445,-0.019989014,-0.0011291504
0.99617004,-9.775635,-0.92904663,0.013977051,-0.03036499,-0.0017547607
1.0298462,-9.768448,-0.9434662,0.014282227,-0.031585693,-8.239746E-4
1.053894,-9.730118,-0.9867096,0.014892578,-0.025482178,7.019043E-4
1.0731201,-9.727707,-1.0155182,0.016433716,-0.022750854,0.0016326904
1.1043701,-9.754074,-1.0515594,0.017654419,-0.027023315,-8.087158E-4
1.1260071,-9.730118,-1.0419464,0.0155181885,-0.028244019,-0.0023498535
1.1091766,-9.703751,-1.0299377,0.012466431,-0.018173218,1.0681152E-4
1.0466614,-9.71814,-1.0299377,0.0072784424,-0.005645752,0.003768921
1.0226288,-9.722931,-1.0155182,0.0084991455,0.0019836426,0.0034637451
1.0514832,-9.754074,-0.96507263,0.012161255,0.010848999,0.002243042
1.0586853,-9.77803,-0.91703796,0.009719849,0.014816284,0.0043792725
1.0490723,-9.761246,-0.9194336,0.007583618,0.011764526,0.0068206787
1.0562897,-9.742096,-0.8978119,0.009109497,0.008712769,0.008346558
1.0490723,-9.739685,-0.8978119,0.013076782,0.011764526,0.009262085
1.0106049,-9.766052,-0.91223145,0.013381958,0.008712769,0.008346558
0.9841614,-9.754074,-0.90982056,0.011245728,0.006576538,0.0074310303
0.96972656,-9.754074,-0.8882141,0.012161255,0.0016784668,0.0068206787
0.9601135,-9.761261,-0.9002228,0.012161255,-4.5776367E-4,0.007736206
0.986557,-9.751663,-0.90263367,0.011856079,-0.0016784668,0.0098724365
0.9913788,-9.763657,-0.89541626,0.011550903,-0.0047302246,0.008041382
0.99858093,-9.749268,-0.9002228,0.012771606,-0.0059509277,0.009262085
1.0346375,-9.749283,-0.93865967,0.011856079,-0.009002686,0.0098724365
1.0899506,-9.749268,-0.95306396,0.009414673,-0.011444092,0.010177612
1.0875397,-9.737289,-0.9218445,0.00819397,-0.016036987,0.0074310303
1.0250244,-9.713333,-0.88342285,0.0084991455,-0.0059509277,0.0059051514
0.96972656,-9.71814,-0.9050293,0.008804321,0.0065612793,0.0031585693
0.8567352,-9.768448,-0.91223145,0.010025024,0.013595581,0.003768921
0.78941345,-9.809174,-0.91223145,0.010635376,0.015426636,0.006210327
0.83509827,-9.823563,-0.8954315,0.010025024,0.0038146973,0.010482788
0.9120178,-9.761246,-0.8617859,0.010009766,-0.012969971,0.012298584
0.9529114,-9.768448,-0.82095337,0.016113281,-0.01663208,0.013214111
0.93367004,-9.758865,-0.85697937,0.022521973,-0.01449585,0.010787964
0.94569397,-9.768448,-0.91464233,0.020706177,-0.014785767,0.0101623535
0.9601135,-9.75647,-0.90263367,0.020095825,-0.015716553,0.012619019
0.9625244,-9.722916,-0.91223145,0.017333984,-0.021209717,0.011993408
0.9216461,-9.708557,-0.92904663,0.012756348,-0.020599365,0.011077881
0.8831787,-9.75647,-0.9578705,0.0060424805,-0.028533936,0.009246826
0.93367004,-9.806778,-0.962677,5.493164E-4,-0.039230347,0.0058898926
0.96972656,-9.787613,-0.91464233,0.0029907227,-0.048080444,0.002532959
0.986557,-9.734909,-0.86660767,0.009399414,-0.049316406,0.0019226074
0.9913635,-9.672607,-0.8665924,0.0048217773,-0.038619995,0.0043640137
0.9505005,-9.686981,-0.9242401,-0.0067749023,-0.025787354,0.005279541
0.8879852,-9.720535,-0.9338379,-0.011978149,-0.023956299,3.9672852E-4
0.8567352,-9.7708435,-0.9410553,-0.014724731,-0.017547607,-0.0066375732
0.8591461,-9.813965,-0.8954315,-0.013504028,-0.019073486,-0.007247925
0.8639374,-9.809174,-0.86660767,-0.0077056885,-0.024261475,-0.0048065186
0.86875916,-9.785217,-0.82336426,5.493164E-4,-0.035568237,-2.1362305E-4
0.89520264,-9.785217,-0.83296204,0.005126953,-0.031295776,0.0019226074
0.90722656,-9.806778,-0.8641968,0.0063476562,-0.023651123,0.003753662
0.90722656,-9.787613,-0.8425751,0.0115356445,-0.021209717,0.002532959
0.94569397,-9.761246,-0.8257599,0.015197754,-0.017547607,0.0010070801
0.986557,-9.732513,-0.87861633,0.018249512,-0.0050201416,0.0031433105
0.9817505,-9.739685,-0.91464233,0.015197754,-0.001663208,-2.1362305E-4
0.93608093,-9.746872,-0.8834076,0.0115356445,0.0068969727,-0.0023651123
0.89520264,-9.746872,-0.8834076,0.0063476562,0.013000488,-0.004196167
0.83509827,-9.746872,-0.8617859,0.001159668,0.006286621,-0.0048065186
0.81585693,-9.742096,-0.8281555,-6.866455E-4,0.0019989014,-0.0063323975
0.8230591,-9.787613,-0.84017944,-6.713867E-4,0.0078125,-0.004196167
0.8447113,-9.7948,-0.8449707,-9.765625E-4,0.008102417,-0.0029754639
0.89520264,-9.806778,-0.8281555,0.0032958984,0.005050659,-0.0029754639
0.93847656,-9.77803,-0.81614685,0.010314941,0.0029144287,-0.004196167
0.92645264,-9.75647,-0.83055115,0.013671875,7.7819824E-4,-0.0060272217
0.9216461,-9.761246,-0.8617859,0.013366699,0.0056762695,-0.005722046
0.9264679,-9.780426,-0.8713989,0.013061523,0.009643555,-0.004501343
0.93367004,-9.754074,-0.91464233,0.012145996,0.012084961,-0.0035858154
0.9432831,-9.749268,-0.8978119,0.013366699,-7.4768066E-4,-0.0048065186
0.9432831,-9.758865,-0.88101196,0.014587402,-0.007156372,-0.00541687
0.92645264,-9.734894,-0.9002228,0.01184082,0.0013885498,-0.004486084
0.9601135,-9.739685,-0.90982056,0.0063476562,0.008117676,-0.00541687
1.0009918,-9.761261,-0.91944885,0.0014648438,0.0078125,-0.006942749
1.0586853,-9.725311,-0.87379456,5.340576E-4,0.0053710938,-0.010299683
0.97454834,-9.739685,-0.8449707,-0.0021972656,0.010253906,-0.015487671
0.8182678,-9.77803,-0.8425751,-0.0025024414,0.011169434,-0.019454956
0.71728516,-9.787628,-0.8425598,0.0014648438,-0.0074768066,-0.02067566
0.68603516,-9.804382,-0.8497772,0.0035858154,-0.027633667,-0.018234253
0.7581482,-9.806778,-0.8353729,0.0026855469,-0.044433594,-0.015182495
0.93125916,-9.761246,-0.83296204,0.007873535,-0.060302734,-0.009994507
0.99617004,-9.758865,-0.87620544,0.009094238,-0.063964844,-0.004196167
1.0731201,-9.754074,-0.9050293,0.008178711,-0.063964844,-0.00541687
1.116394,-9.749268,-0.8978119,0.009094238,-0.064575195,-0.0090789795
1.106781,-9.730118,-0.91223145,0.010925293,-0.04901123,-0.01335144
1.0490723,-9.71814,-0.8834076,0.009399414,-0.024871826,-0.015182495
1.0106049,-9.744492,-0.90982056,0.0032958984,-0.0037994385,-0.014572144
0.99617004,-9.768448,-0.91464233,-0.0021972656,0.0059814453,-0.010604858
0.9913635,-9.761246,-0.8858032,-0.004043579,0.0029144287,-0.0090789795
0.9673157,-9.75647,-0.854599,-0.0031280518,-4.4250488E-4,-0.012130737
0.9528961,-9.758865,-0.8281555,-6.713867E-4,0.0029296875,-0.012130737
0.9480896,-9.766052,-0.84498596,-0.0012969971,0.0016937256,-0.012130737
0.97213745,-9.754074,-0.83776855,-0.0018920898,0.0029144287,-0.011520386
0.9432831,-9.746872,-0.8449707,-3.6621094E-4,0.009643555,-0.0118255615
0.8879852,-9.804382,-0.85939026,0.004196167,0.0044403076,-0.011520386
0.90000916,-9.809174,-0.83055115,0.008178711,-0.015411377,-0.0118255615
0.9408722,-9.754074,-0.7993469,0.0087890625,-0.04258728,-0.010910034
0.9937744,-9.734894,-0.8473816,0.010620117,-0.056640625,-0.011520386
0.9913788,-9.763657,-0.91223145,0.00970459,-0.06121826,-0.013046265
1.0586853,-9.734909,-0.95547485,0.0072631836,-0.057861328,-0.0118255615
1.1188049,-9.703751,-0.96507263,8.544922E-4,-0.046875,-0.008163452
1.1524506,-9.737289,-0.9410553,-0.0037384033,-0.035873413,-0.0066375732
1.1620789,-9.746872,-0.91223145,-0.0049591064,-0.027923584,-0.009384155
1.0827484,-9.766052,-0.88101196,-0.0049438477,-0.018463135,-0.01121521
1.0394592,-9.768448,-0.8978119,-3.6621094E-4,-0.00440979,-0.0118255615
1.0106049,-9.746872,-0.8569946,0.002380371,0.004135132,-0.009689331
0.9673157,-9.766052,-0.86660767,0.0011444092,0.008117676,-0.0063323975
0.93847656,-9.763657,-0.8858032,-0.0025024414,0.014221191,-5.340576E-4
0.96972656,-9.763657,-0.890625,-0.004043579,0.016357422,0.002532959
0.9889679,-9.780426,-0.8449707,-3.6621094E-4,0.017578125,7.019043E-4
1.0130157,-9.763657,-0.80174255,0.0057373047,0.01361084,-0.0023498535
0.955307,-9.751663,-0.8281555,0.008483887,0.0053710938,-0.0054016113
0.94569397,-9.766052,-0.86898804,0.011230469,0.0044403076,-0.0054016113
0.92884827,-9.761261,-0.9050293,0.011230469,-7.4768066E-4,-0.0035705566
0.986557,-9.763657,-0.9002228,0.0087890625,-0.008377075,-0.0011291504
1.0298309,-9.754074,-0.85939026,0.0063476562,-0.008377075,0.0013275146
1.0442657,-9.737289,-0.8617859,0.00541687,-0.01663208,4.119873E-4
1.0659027,-9.749268,-0.8713989,0.0060424805,-0.021209717,-8.087158E-4
1.0682983,-9.751663,-0.8858032,0.0063476562,-0.02243042,-0.002029419
1.0586853,-9.75647,-0.8954315,0.0063476562,-0.014190674,-0.0014190674
1.0514832,-9.75647,-0.87620544,0.0072631836,-0.008682251,1.0681152E-4
1.0346375,-9.75885,-0.8617859,0.0072631836,-0.00440979,4.119873E-4
1.0274353,-9.749268,-0.86660767,0.006958008,0.0035247803,0.0010223389
1.017807,-9.744492,-0.88101196,0.0057373047,0.006881714,4.119873E-4
1.008194,-9.75647,-0.91464233,0.0032958984,0.010559082,0.0016326904
0.9817505,-9.75647,-0.890625,8.544922E-4,0.009338379,0.0034637451
0.99617004,-9.761246,-0.8858032,-0.0016021729,0.0074920654,0.003768921
1.0033875,-9.766052,-0.85697937,-0.0015869141,0.006591797,0.0052948
1.0106049,-9.754074,-0.83296204,2.4414062E-4,0.006591797,0.0031585693
0.9649353,-9.763657,-0.83296204,8.544922E-4,0.008117676,0.0028533936
0.93608093,-9.775635,-0.84017944,0.0017700195,0.009338379,0.0034637451
0.9528961,-9.77803,-0.8353729,0.002380371,0.008422852,0.003768921
0.9480896,-9.773239,-0.81614685,0.005432129,0.009338379,0.0043792725
0.92884827,-9.790009,-0.79452515,0.011230469,0.006591797,0.0046844482
0.9264679,-9.792404,-0.8257599,0.010620117,0.0035247803,0.0068206787
0.9625244,-9.766052,-0.82095337,0.013061523,0.0062713623,0.009567261
0.9793396,-9.766052,-0.82095337,0.01763916,0.0056762695,0.008956909
0.9505005,-9.737289,-0.8257599,0.018249512,7.7819824E-4,0.008346558
0.9528961,-9.751663,-0.8690033,0.014587402,1.6784668E-4,0.0071258545
0.94569397,-9.7708435,-0.9050293,0.0087890625,0.011169434,0.008041382
0.9817505,-9.7708435,-0.8809967,0.0072631836,0.016662598,0.009262085
1.008194,-9.754074,-0.8281708,0.010925293,0.015136719,0.010803223
1.0106049,-9.773239,-0.8065338,0.013671875,0.014526367,0.01109314
0.986557,-9.799606,-0.8257599,0.014892578,0.014221191,0.012924194
0.9793396,-9.751663,-0.8521881,0.012145996,0.018798828,0.014755249
0.9841614,-9.737289,-0.8713989,0.012145996,0.02734375,0.015670776
0.9793396,-9.725311,-0.8882141,0.013061523,0.026123047,0.012924194
0.9432831,-9.775635,-0.8713989,0.012756348,0.01940918,0.008956909
0.93608093,-9.77803,-0.8641968,0.014892578,0.014221191,0.0074310303
0.92645264,-9.749268,-0.87620544,0.013671875,0.011779785,0.007736206
0.9384613,-9.749268,-0.85939026,0.012756348,0.010559082,0.008041382
0.9673157,-9.720535,-0.85939026,0.007873535,0.0099487305,0.0074310303
0.94569397,-9.71814,-0.88101196,-9.918213E-4,0.010559082,0.008651733
0.9144287,-9.744492,-0.8882141,-0.0077056885,0.007797241,0.006515503
0.90960693,-9.737289,-0.8137512,-0.0074005127,0.005050659,0.0028533936
0.8999939,-9.768448,-0.7921295,-0.0077056885,0.014221191,0.0031585693
0.8783722,-9.782822,-0.7825165,-0.011367798,0.013916016,0.003768921
0.8783722,-9.766052,-0.83296204,-0.015029907,0.0056610107,0.0052948
0.89038086,-9.761261,-0.8521881,-0.014419556,0.0029296875,0.0055999756
0.9048157,-9.770828,-0.8449707,-0.007385254,0.0016937256,0.0013275146
0.8976135,-9.782822,-0.82095337,-0.005264282,0.003540039,-0.002029419
0.8783722,-9.782822,-0.8185425,-0.0049591064,0.016967773,-0.0023498535
0.8711548,-9.775635,-0.84017944,-0.0046539307,0.018493652,-1.9836426E-4
0.92645264,-9.790009,-0.854599,-0.0037231445,0.015457153,0.0013122559
0.95770264,-9.787613,-0.83296204,-0.0015869141,0.012710571,0.0019226074
0.97213745,-9.77803,-0.7993469,0.0017547607,0.011795044,0.0016174316
0.93847656,-9.7948,-0.7921295,0.0057373047,0.016983032,0.0010070801
0.89520264,-9.775635,-0.7705078,0.00970459,0.027359009,0.0016174316
0.9120178,-9.773224,-0.7825165,0.010314941,0.03378296,0.0043640137
0.9192352,-9.77803,-0.8041382,0.010620117,0.031036377,0.0043640137
0.89759827,-9.766052,-0.8065338,0.012756348,0.025848389,0.0031433105
0.86154175,-9.766052,-0.78012085,0.015197754,0.015457153,3.9672852E-4
0.85191345,-9.744492,-0.78733826,0.013671875,0.008743286,-5.187988E-4
0.8639374,-9.758865,-0.83776855,0.00970459,0.0014038086,0.0016174316
0.93125916,-9.746887,-0.8425751,0.0060272217,-4.272461E-4,0.0028381348
0.93847656,-9.763657,-0.83055115,0.005126953,-4.272461E-4,0.0010070801
0.9432831,-9.766052,-0.8137512,0.005126953,-4.272461E-4,-8.239746E-4
0.9096222,-9.763657,-0.81373596,0.0048217773,-0.0040893555,-0.0026550293
0.9048157,-9.75647,-0.8113556,0.004196167,-0.0065307617,-0.0032806396
0.9120331,-9.768448,-0.82336426,0.0045166016,-0.008666992,-0.0029754639
0.9096222,-9.768448,-0.8281555,0.0029907227,-0.007751465,-0.0029754639
0.9024048,-9.77803,-0.84017944,0.0026855469,-0.008666992,-0.0017547607
0.93608093,-9.782822,-0.7993469,0.0048065186,-0.010192871,-0.0014343262
0.9601135,-9.77803,-0.7921448,0.006652832,-0.007446289,-0.0011291504
0.9432831,-9.766052,-0.78012085,0.008178711,-0.0028686523,-0.0020599365
0.9216461,-9.75647,-0.8065338,0.0087890625,1.8310547E-4,-0.0029754639
0.9168396,-9.773224,-0.80415344,0.007873535,0.0023345947,-8.239746E-4
0.9120178,-9.773239,-0.8113556,0.0048217773,-0.0043945312,-2.1362305E-4
0.94569397,-9.766052,-0.8089447,0.00390625,-0.007751465,0.0010070801
0.95770264,-9.77803,-0.8041382,0.005432129,-0.0065460205,0.0013122559
0.93847656,-9.773224,-0.80174255,0.0075683594,-0.007156372,3.9672852E-4
0.9505005,-9.766052,-0.79693604,0.007873535,-0.0028839111,-8.239746E-4
0.9601135,-9.75647,-0.8065338,0.00970459,-0.0010528564,-8.239746E-4
0.93608093,-9.758865,-0.80415344,0.0075683594,7.7819824E-4,-2.1362305E-4
0.92884827,-9.780426,-0.8137512,0.0066375732,-4.4250488E-4,-5.187988E-4
0.92645264,-9.780426,-0.83055115,0.0072631836,-0.0010528564,0.0016174316
0.9913635,-9.751663,-0.81614685,0.006958008,0.0016937256,0.0028381348
0.96733093,-9.749283,-0.8113556,0.008178711,0.0154418945,0.0010070801
0.9408722,-9.744492,-0.8113556,0.010314941,0.023071289,-2.1362305E-4
0.9144287,-9.770828,-0.8281708,0.006652832,0.027053833,7.019043E-4
0.9096222,-9.77803,-0.8161621,0.0017700195,0.028579712,0.0022277832
0.90960693,-9.768448,-0.7825165,0.0032958984,0.024902344,7.019043E-4
0.9048157,-9.773239,-0.78492737,0.004196167,0.0178833,9.1552734E-5
0.8976135,-9.773239,-0.75849915,0.0045166016,0.01574707,0.0013122559
0.9024048,-9.785217,-0.75849915,0.005126953,0.012084961,0.004058838
0.8976135,-9.770828,-0.7753296,0.0060272217,0.008117676,0.0034484863
0.9048157,-9.758865,-0.78012085,0.007873535,0.008117676,0.0016174316
0.92645264,-9.766052,-0.7921295,0.008483887,0.0023040771,3.9672852E-4
0.93608093,-9.780426,-0.8041382,0.008483887,-0.0010528564,-0.0011291504
0.9144287,-9.77803,-0.7921295,0.009399414,-0.004714966,9.1552734E-5
0.924057,-9.763657,-0.8041382,0.007873535,-0.0037994385,0.0016174316
0.97454834,-9.761246,-0.80174255,0.0072631836,-0.003189087,0.0019226074
1.0057831,-9.749283,-0.7825165,0.007873535,7.7819824E-4,-2.1362305E-4
0.9793396,-9.746887,-0.80174255,0.0029754639,0.008712769,0.0016174316
0.89759827,-9.75647,-0.8113556,-9.765625E-4,0.010864258,7.019043E-4
0.8399048,-9.763657,-0.77770996,0.002380371,0.016357422,-8.239746E-4
0.84710693,-9.782822,-0.7344818,0.0048065186,0.021850586,0.0019226074
0.8807678,-9.799591,-0.7536926,0.0020751953,0.02154541,0.0046691895
0.9216461,-9.787613,-0.74890137,8.544922E-4,0.019104004,0.0049743652
0.96492004,-9.780426,-0.75131226,0.0029907227,0.021240234,0.0049743652
0.9889679,-9.7708435,-0.75849915,0.005126953,0.024902344,0.005279541
0.9793396,-9.775635,-0.7176666,0.0075683594,0.030410767,0.0031433105
0.96492004,-9.790009,-0.7104645,0.010925293,0.04017639,0.0046691895
0.924057,-9.766052,-0.73928833,0.0115356445,0.0496521,0.00680542
0.9096222,-9.773224,-0.7561035,0.0087890625,0.060028076,0.008331299
0.9024048,-9.7708435,-0.7320862,0.010009766,0.06185913,0.011398315
0.8759613,-9.77803,-0.70565796,0.010620117,0.05239868,0.01322937
0.83029175,-9.758865,-0.6840515,0.011230469,0.034988403,0.011398315
0.7653656,-9.742096,-0.69844055,0.0087890625,0.017578125,0.00894165
0.74372864,-9.734909,-0.7536926,0.0032958984,0.0023040771,0.005279541
0.7341156,-9.708557,-0.7536926,-0.0034332275,-0.007156372,0.003753662
0.76297,-9.749283,-0.7464905,-0.008926392,-0.020904541,0.0043640137
0.8182678,-9.797195,-0.7344818,-0.015640259,-0.040145874,0.0031433105
0.8567352,-9.799606,-0.7657013,-0.019607544,-0.05908203,-5.187988E-4
0.8855896,-9.785217,-0.77531433,-0.01777649,-0.06825256,-0.0020599365
0.94569397,-9.780426,-0.7921448,-0.011978149,-0.062438965,-0.0023651123
1.0009918,-9.77803,-0.82336426,-0.007095337,-0.04258728,0.0013122559
1.053894,-9.7708435,-0.8713989,-0.0037384033,-0.02029419,0.0043640137
1.0586853,-9.775635,-0.84498596,-0.005554199,-0.009902954,0.0058898926
1.1019745,-9.787613,-0.8641968,-0.006164551,-0.0019683838,0.005279541
1.0057831,-9.785202,-0.8137512,-0.0037384033,0.012390137,0.0028381348
0.87597656,-9.842712,-0.78012085,-0.04710388,-0.004699707,-0.015197754
1.0226288,-9.701355,-0.93385315,-0.059631348,0.059127808,-0.03930664
0.96972656,-9.754074,-0.8497772,-0.023880005,0.10891724,-0.023742676
0.96972656,-9.945755,-0.83296204,-0.02420044,0.111968994,-0.024353027
0.1690979,-9.222183,-0.715271,-0.031829834,0.13916016,-0.04878235
1.2943115,-9.576767,-0.7753296,0.052764893,-0.021499634,0.09172058
1.3688507,-10.49202,-0.7897339,0.023147583,0.15350342,0.09324646
0.741333,-9.533646,-0.70806885,-0.02633667,0.041107178,-0.012130737
0.9192352,-9.797195,-0.76091003,-0.0016021729,0.106781006,0.014434814
0.75094604,-9.804382,-0.8521881,-0.014419556,0.09425354,-0.004486084
0.7437439,-9.806778,-0.9098358,0.0020751953,0.10005188,0.005279541
0.6547699,-9.744492,-0.7561035,-0.0046539307,0.07714844,-0.0029754639
0.76297,-9.684586,-0.74890137,-0.0022125244,0.09211731,-0.001449585
1.1139832,-9.737289,-0.97468567,-6.713867E-4,0.11166382,0.01473999
1.1043701,-9.842712,-1.008316,0.013381958,0.120224,0.030014038
1.017807,-9.861893,-0.7032623,0.03199768,0.0872345,0.015350342
1.0274353,-9.538437,-0.9602814,0.0087890625,0.09761047,0.016586304
0.59225464,-9.512085,-0.74890137,-0.037628174,0.10769653,-0.0090789795
0.89520264,-9.694183,-0.8089447,-0.06970215,0.124801636,-0.0020599365
1.0755157,-9.571976,-1.1212006,0.1111145,0.23414612,0.100875854
0.6595764,-10.43692,-0.70806885,0.116607666,0.31385803,0.13294983
0.70526123,-9.825943,-0.87620544,-0.016571045,0.15045166,-0.015182495
0.66918945,-9.52887,-0.60717773,-0.048324585,0.046920776,-0.064971924
0.8831787,-9.83313,-0.7296753,-0.057495117,0.07501221,-0.06925964
1.4313507,-10.070343,-1.1140137,0.015808105,0.17825317,-0.0023651123
0.8374939,-10.264404,-1.0035095,0.06163025,0.38838196,-0.03289795
0.41914368,-9.375519,-0.35255432,0.17097473,0.48336792,-0.12239075
0.31817627,-9.60791,-0.24446106,0.064697266,0.20175171,-0.08634949
1.5708008,-10.309921,-1.0347443,-0.08406067,0.039260864,-0.039016724
0.16670227,-8.687881,-0.30934143,0.030471802,-0.027633667,0.041915894
1.2390137,-9.382706,-0.5783539,-0.010772705,0.02734375,0.05934143
2.0180054,-10.087097,-1.5800018,-0.09107971,0.16571045,0.13447571
1.0394592,-9.806778,-1.3013763,-0.054122925,0.2286377,0.070632935
0.5489807,-9.902618,-0.5615387,0.032302856,0.044158936,0.09385681
0.9769287,-9.847519,-0.67204285,-0.061157227,0.06309509,0.03062439
1.2606506,-9.574371,-0.9362488,-0.15644836,0.12020874,-0.023132324
1.0803375,-9.727707,-0.8834076,-0.11582947,0.14311218,0.0061950684
0.75575256,-9.77803,-0.70565796,-0.061767578,0.18252563,0.024215698
0.6259155,-9.969711,-0.7104492,-0.072143555,0.18922424,0.0034332275
0.89520264,-9.758865,-0.854599,-0.12683105,0.1956482,-0.03718567
1.6982269,-9.598328,-1.1668549,-0.10513306,0.19410706,0.008636475
1.4794312,-9.1263275,-0.93626404,-9.765625E-4,0.058502197,0.12133789
-0.75416565,-8.606415,-0.22285461,0.047576904,-0.15408325,0.23556519
-3.1103516,-5.7408905,-0.6888428,-0.11186218,-0.12994385,0.16197205
0.034454346,-12.233856,-0.91464233,-0.52542114,-0.3855896,0.16104126
3.0422363,-12.962219,-1.2293091,-0.42462158,-0.42988586,0.34124756
2.6647491,-11.469543,-0.1820221,-0.18821716,-0.5285492,0.34614563
1.5828247,-10.837036,-1.0635681,-0.11369324,-0.12231445,0.15158081
1.3880768,-10.194916,-1.2148895,-0.05168152,-0.001663208,0.18304443
0.13543701,-8.958618,-0.7320862,0.03842163,-0.17027283,0.18365479
-0.58343506,-9.164688,-0.54953,0.14408875,-0.02243042,0.1002655
0.14746094,-9.722916,-0.99871826,0.24732971,0.47999573,0.04284668
0.55378723,-9.629486,-1.0491486,0.34965515,0.73046875,0.08224487
0.15228271,-8.599243,-0.64801025,0.28092957,0.41677856,0.09660339
0.26286316,-9.085602,-0.73687744,-0.05810547,0.12232971,-0.031066895
0.6235199,-9.984085,-1.164444,-0.3849182,-0.08596802,-0.17462158
0.76297,-9.835541,-1.4262695,-0.39102173,-0.31809998,-0.20791626
1.8352814,-9.11676,-1.7361298,-0.24441528,-0.40940857,-0.004501343
1.4289551,-10.04158,-1.1524353,-0.035186768,-0.36299133,0.30368042
1.7318878,-10.5447235,-1.2293091,-0.005874634,0.06736755,0.5342865
1.84729,-10.37941,-0.91223145,0.056427002,0.3171997,0.5498657
-0.13865662,-10.592651,-1.1140137,0.038726807,0.315979,0.44540405
-1.2806854,-9.976898,-1.1043854,-0.07795715,0.04660034,0.25756836
-0.4199524,-9.358749,-1.2052917,-0.1362915,0.106155396,0.27252197
0.42396545,-9.301239,-1.467102,-0.05810547,0.5337677,0.2499237
0.51290894,-9.651047,-1.3830261,0.011230469,0.7136688,0.28504944
-0.4728546,-9.813965,-0.79693604,0.044525146,0.6201935,0.15188599
-1.6581573,-9.665421,-0.8113556,-0.03488159,0.28178406,0.03765869
-1.1460419,-9.016129,-0.9602814,-0.11979675,0.26956177,-0.0038909912
-0.80703735,-8.886749,-1.3374023,-0.12652588,0.31079102,-0.02067566
-0.18673706,-8.956223,-1.3397827,-0.13720703,0.49772644,-0.053985596
-0.63153076,-9.933762,-1.385437,-0.16653442,0.68769836,-0.11079407
-0.867157,-10.329102,-0.99150085,-0.0715332,0.76589966,-0.158432
-0.5377655,-10.161377,-1.1116028,0.01612854,0.58569336,-0.115371704
0.17871094,-10.216492,-1.0659637,0.084228516,0.33491516,-0.09214783
1.0346375,-10.503998,-1.6040192,0.08148193,0.17150879,-0.064971924
0.55859375,-10.841827,-1.2124786,0.07904053,0.057296753,0.09567261
-0.25645447,-11.194031,-1.0611572,0.13371277,-0.24357605,0.133255
0.092163086,-11.390488,-0.9050293,0.28857422,-0.36146545,0.25419617
0.48646545,-11.380905,-1.2413177,0.47305298,-0.25334167,0.3433838
-0.6459656,-11.090988,-0.8185425,0.5659027,0.07928467,0.40997314
0.08013916,2.4148407,9.423676,-0.0901947,0.19293213,-0.16975403
-0.31175232,2.7382965,8.400421,-0.06361389,0.35144043,-0.18777466
-0.80703735,3.0856934,8.765518,-0.2157135,0.2084961,-0.11630249
-0.9368744,3.1240387,9.332413,-0.3256836,-0.014465332,-0.09675598
-0.6050873,2.917984,9.779175,-0.43501282,-0.068222046,-0.15112305
-0.04248047,2.834137,10.026596,-0.5196228,0.062820435,-0.17433167
-0.36706543,2.6304932,9.73114,-0.5119934,0.24424744,-0.19113159
-0.8911896,2.5705872,9.394852,-0.4066162,0.2191925,-0.19326782
-0.89360046,2.434021,9.637451,-0.26062012,-0.054473877,-0.17494202
-0.16029358,1.933258,9.543777,-0.18060303,-0.2578888,-0.16395569
0.18833923,2.1417084,10.079437,-0.20289612,-0.36694336,-0.2684021
-0.19393921,2.407669,10.192337,-0.24382019,-0.1607666,-0.24397278
-0.42715454,2.2088013,10.02179,-0.15525818,0.08847046,-0.17585754
0.060897827,2.0099335,9.901688,-0.06790161,0.052124023,-0.118133545
0.5201416,1.9644165,9.822418,-0.03981018,-0.030654907,-0.19326782
0.45040894,2.6065216,9.452499,-0.02268982,-0.012939453,-0.40615845
-0.09056091,3.1839447,9.173874,-0.05783081,0.14924622,-0.5857544
0.41435242,3.6175995,8.974503,-0.115249634,0.3270111,-0.65509033
-0.75175476,3.2390442,10.096252,-0.22062683,0.40979004,-0.6526489
-1.2446289,1.5067902,11.414963,-0.39593506,0.8514404,-0.74031067
-1.1147919,2.453186,11.782471,-0.15861511,1.1046448,-0.6043854
-1.3792572,2.2471313,11.494217,0.2861023,0.90367126,-0.34384155
-1.5884247,2.3453674,9.245926,0.84931946,0.75860596,-0.30200195
-1.5042877,2.9659119,7.703842,1.0683136,0.3835144,-0.1700592
-2.095749,3.1144562,7.134552,0.9974518,-0.21940613,-0.1040802
-2.114975,2.4867096,6.5052185,0.77111816,-0.7752991,-0.068344116
-1.3648376,2.2015991,6.9351807,0.287323,-1.3733368,0.064208984
0.032043457,2.012329,9.471725,-0.49276733,-1.5587463,0.3241272
0.14506531,2.3717194,10.876907,-1.1460876,-0.78385925,0.3446045
-0.12661743,2.1321259,10.23558,-1.2872009,0.30715942,0.21173096
-0.73731995,2.0698395,9.937714,-1.0694275,0.4876709,0.008010864
-1.0643005,1.933258,9.63266,-0.5596466,0.2692871,-0.14408875
-0.95851135,1.679306,9.58461,0.034729004,-0.19465637,-0.16792297
-0.51852417,1.4972076,10.026596,0.44369507,-0.52545166,-0.15447998
-0.117004395,1.890152,10.187515,0.5252533,-0.43778992,-0.08546448
0.0152282715,2.4436035,9.358826,0.3612213,-0.043182373,-0.025894165
-0.542572,2.9251862,8.842392,0.031677246,0.29615784,-0.101638794
-1.2133636,2.501114,9.351624,-0.27926636,0.28578186,-0.24397278
-0.69163513,1.5642853,10.934555,-0.3357544,-0.014785767,-0.2558899
-0.4728546,1.7032623,11.009018,-0.104537964,0.009033203,-0.17250061
-0.95129395,2.2830658,8.8832245,0.2124939,0.44551086,-0.13920593
-1.4537964,2.584961,7.869583,0.19172668,0.3712921,-0.12516785
-0.8791809,2.6640167,9.435699,-0.12194824,-0.0135650635,-0.079956055
-0.6772003,2.3094177,10.264389,-0.2584839,-0.14581299,-0.1587677
-0.81185913,1.954834,10.175507,-0.2340393,-0.023025513,-0.2183075
-0.9705353,1.8086853,10.026581,-0.22976685,0.11685181,-0.19540405
-1.102768,1.9188843,9.904083,-0.1921997,0.14709473,-0.13278198
-1.1556702,1.9811859,9.611038,-0.044067383,0.06585693,-0.09094238
-1.0330505,2.0674438,9.543777,0.10864258,-0.06486511,-0.072631836
-1.0787201,2.1489105,9.498138,0.11048889,-0.05632019,-0.08300781
-1.3191528,2.0746155,9.29158,-0.014434814,0.098236084,-0.1098938
-1.5187073,1.9763947,9.293976,-0.15341187,0.19291687,-0.109573364
-1.6100769,1.9572144,9.548584,-0.190979,0.1550293,-0.06895447
-1.5139008,1.8877563,9.685501,-0.108810425,0.04234314,-0.024368286
-1.3576202,1.8230591,9.771973,-0.014434814,-0.039215088,0.015335083
-1.2301941,1.8518066,9.829636,-0.021469116,-0.027008057,0.05505371
-1.1869202,1.8470154,9.815216,-0.06513977,0.041107178,0.08314514
-1.2037506,1.7631531,9.793594,-0.07185364,0.06921387,0.09933472
-1.1268158,1.8182678,9.899277,-0.064834595,0.068603516,0.13171387
-1.0162048,1.8254395,10.000168,-0.07093811,0.064315796,0.16194153
-0.81907654,1.9045105,9.992966,-0.043151855,0.047531128,0.18821716
-0.6291199,2.0961914,9.86084,0.032592773,0.021865845,0.19645691
-0.56903076,2.1225586,9.591827,0.08390808,0.009963989,0.16378784
-0.59065247,2.1321259,9.594238,0.042678833,0.013931274,0.12561035
-0.5978699,2.1776428,9.659073,-7.6293945E-5,0.009963989,0.09902954
-0.573822,2.2039948,9.73114,-0.005569458,0.009353638,0.06512451
-0.6675873,2.1488953,9.752747,0.0011444092,0.016983032,0.01411438
-0.76856995,2.1201477,9.575012,0.012435913,0.043548584,-0.02406311
-0.8286896,2.1321259,9.541382,0.0118255615,0.029510498,-0.04421997
-0.9224396,2.0506592,9.608643,-0.01260376,0.0072021484,-0.06681824
-0.98735046,1.9716034,9.721527,-0.030929565,-0.017532349,-0.077804565
-1.059494,1.9787903,9.704712,-7.6293945E-5,-0.027313232,-0.07048035
-1.0041962,1.9955597,9.726334,0.05152893,-0.05570984,-0.058883667
-1.059494,2.0243073,9.656677,0.06588745,-0.039520264,-0.061325073
-1.1244049,1.9907532,9.637451,0.03993225,-0.005004883,-0.0723114
-1.242218,1.8829498,9.767166,0.0075531006,-0.0022583008,-0.078430176
-1.2686615,1.7966919,9.776779,0.016403198,0.004776001,-0.0634613
-1.1748962,1.9164886,9.663879,0.044204712,0.00843811,-0.022537231
-1.0474701,1.9979553,9.834427,0.054885864,-0.014480591,-0.014892578
-1.1652832,1.8565979,9.707123,0.052749634,0.01576233,-0.043304443
-1.2446289,1.7919006,9.57019,0.03564453,0.047836304,-0.03994751
-1.1388397,1.8638,9.490952,0.042678833,0.035614014,-0.007873535
-1.0234375,1.933258,9.603836,0.067108154,-0.016311646,0.00831604
-1.059494,1.9188843,9.563004,0.060394287,-0.0068359375,0.006790161
-1.0354462,1.9524384,9.690308,0.0075531006,0.030426025,0.015960693
-1.0354462,1.9524384,9.555786,0.004501343,0.052719116,0.026641846
-1.0018005,1.9763947,9.469315,0.016708374,0.035308838,0.037643433
-0.9152374,2.0865936,9.575012,0.01121521,-0.0016479492,0.04801941
-0.9032135,2.0626373,9.63266,0.02923584,-0.031280518,0.0284729
-0.91041565,2.0650482,9.716721,0.015792847,-0.027908325,0.009841919
-0.87194824,2.0914001,9.635071,0.009689331,7.9345703E-4,-0.0017547607
-0.929657,2.0674438,9.440491,0.002670288,0.04171753,-0.016708374
-0.92004395,2.124939,9.478928,-0.01260376,0.03164673,-0.026489258
-0.9897766,2.223175,9.447708,-0.015045166,0.017593384,-0.038711548
-1.1676941,2.0674438,9.591827,-0.047424316,0.007827759,-0.07597351
-1.3455963,1.8398285,9.66629,-0.0819397,0.0044555664,-0.083602905
-1.3552094,1.8254547,9.841644,-0.08560181,-0.014480591,-0.041152954
-1.2301941,1.9812012,9.822418,-0.055374146,-0.024551392,0.011993408
-1.112381,1.9979553,9.771973,-0.03642273,-0.0071411133,0.019622803
-1.1748962,1.9955597,9.673492,-0.026657104,-1.2207031E-4,0.00894165
-1.2037506,1.933258,9.651871,-0.008026123,-0.0013427734,0.004058838
-1.1652832,1.9164886,9.783981,-0.01260376,-0.015396118,0.013214111
-1.1604614,1.9308624,9.73114,-0.026046753,0.01727295,0.028793335
-1.1628723,1.8877563,9.699921,-0.019317627,0.026748657,0.03855896
-1.0739136,1.9164886,9.752747,0.0038909912,1.8310547E-4,0.05567932
-0.93927,2.019516,9.728729,0.026184082,-0.010818481,0.07246399
-0.89360046,2.0362854,9.538986,0.022216797,0.020645142,0.06971741
-0.95129395,2.057846,9.471725,0.005722046,0.029510498,0.058120728
-1.1388397,1.9428558,9.587021,0.013977051,-0.028839111,0.050476074
-1.0450592,1.8781586,9.755157,0.059783936,-0.10916138,0.07064819
-0.87677,2.0698395,9.716721,0.09429932,-0.09939575,0.0990448
-0.8430939,2.045868,9.786392,0.0710907,-0.06732178,0.07827759
-0.93927,1.9716034,9.762375,0.03352356,-0.017532349,0.04864502
-1.0114136,2.000351,9.613434,0.026794434,0.02583313,0.05291748
-0.99697876,2.0770264,9.536575,0.038101196,0.008728027,0.06819153
-0.85513306,2.136917,9.601425,0.044815063,-0.030670166,0.06788635
-0.7805939,2.2471313,9.596619,0.029846191,-0.02607727,0.045272827
-0.84791565,2.268692,9.563004,-0.00680542,0.00630188,0.004638672
-0.9440918,2.1225586,9.675888,-0.03276062,0.005065918,-0.03352356
-0.9633179,2.0578613,9.747955,-0.03918457,0.0026245117,-0.033218384
-0.9416809,2.1153564,9.711914,-0.019317627,0.0026245117,-0.013061523
-0.9320679,2.1225586,9.711914,0.002960205,-0.010818481,-0.00970459
-0.9681244,2.0842133,9.66629,0.0075531006,-0.01234436,-0.018875122
-1.049881,2.0027466,9.623047,-0.011077881,0.011779785,-0.02619934
-1.0522919,1.9907684,9.59903,-0.026351929,0.021560669,-0.010925293
-0.99458313,2.0075378,9.673477,-0.008331299,-0.0077667236,0.013809204
-0.9056244,2.0554657,9.738342,0.0118255615,-0.030349731,0.028167725
-0.89360046,2.0578613,9.747955,0.0051116943,-0.02180481,0.024505615
-0.867157,2.0937958,9.820007,-0.0016021729,-0.0065307617,0.01411438
-0.9176483,2.0578613,9.69751,0.0063323975,0.017288208,-8.544922E-4
-0.9849701,2.0099335,9.536575,0.0060272217,0.030731201,-0.011230469
-1.0186157,2.0314941,9.478928,0.0029754639,0.02003479,-0.002670288
-1.0090027,2.0842133,9.635071,-6.866455E-4,-0.014175415,0.0022125244
-0.9825592,2.0458832,9.73114,-0.0031433105,-0.02760315,-0.00970459
-1.0090027,2.0243073,9.690308,-0.013824463,0.006591797,-0.021011353
-1.037857,1.9668121,9.695114,-0.025131226,0.026763916,-0.022232056
-1.0667114,1.9428558,9.704712,-0.008636475,0.01423645,-0.011230469
-1.037857,1.9428406,9.687897,0.02130127,-0.005004883,0.008621216
-0.9801483,2.0243073,9.651871,0.025268555,-0.0028686523,0.022369385
-0.99217224,2.0554657,9.632645,-0.010772705,0.035003662,0.019927979
-0.9825592,2.041092,9.59903,-0.031845093,0.038970947,0.009231567
-0.9465027,2.012329,9.644669,-0.0101623535,0.01423645,0.0034332275
-0.9825592,1.9859772,9.788788,-0.0016021729,-0.0135650635,-2.1362305E-4
-0.9488983,2.0147247,9.733536,-0.0028381348,0.013305664,0.009246826
-0.9080353,2.124939,9.481323,0.001449585,0.042022705,0.012298584
-0.94888306,2.0865936,9.558182,-0.0071105957,0.018814087,-0.01121521
-1.0210266,1.9500427,9.707123,-0.02330017,-0.0053100586,-0.029541016
-1.0474701,1.9596252,9.745544,-0.039794922,0.01637268,-0.015182495
-1.0162201,1.9883728,9.64946,-0.035507202,0.02217102,0.008636475
-0.99217224,2.012329,9.536575,-0.0049743652,-0.0037841797,0.025741577
-0.9008026,2.05307,9.680695,0.009384155,-0.041046143,0.027267456
-0.9056244,2.041092,9.642273,-0.0028381348,-0.008972168,0.014129639
-1.0354462,1.9644165,9.719131,-0.045288086,0.0395813,-0.005722046
-1.0546722,1.933258,9.846436,-0.04711914,0.037139893,-0.0011444092
-1.0234375,1.9620209,9.791199,0.008468628,0.0017089844,0.016586304
-0.9681244,2.0291138,9.735947,0.04298401,-0.018447876,0.02268982
-1.0546722,2.2064056,9.771973,0.027709961,-0.026992798,0.011077881
-0.9825592,1.9787903,9.524567,-0.009552002,0.016983032,-0.007247925
-0.9705353,1.8518219,9.363632,-0.009857178,0.057617188,-0.010299683
-0.8791809,1.8781586,9.548584,0.023132324,-0.013259888,-0.00541687
-0.93927,1.9835815,9.868057,0.013656616,-0.03982544,-0.008163452
-1.0114136,2.146515,9.887268,-0.0013122559,-0.026992798,-0.012741089
-1.134018,2.0961761,9.538986,-0.008331299,0.055160522,-0.008163452
-1.0883484,2.0338898,9.606247,-0.013214111,0.06034851,-0.01335144
-1.0402527,1.7799225,9.656677,-0.008331299,-0.03829956,-0.013671875
-0.92485046,1.7200165,9.591827,0.020065308,-0.0028686523,0.0031433105
-0.8358917,1.9428406,9.534164,0.018249512,-0.008377075,0.030929565
-0.88638306,2.1249542,9.543777,-0.005584717,0.007507324,0.025741577
-1.0017853,2.290268,9.594238,-0.011383057,0.031036377,-0.01184082
-1.1700897,2.1536865,9.726349,-0.023284912,0.024612427,-0.037490845
-1.1604614,2.0075378,9.659088,-0.03489685,0.068603516,-0.03199768
-0.9801483,1.9236908,9.594238,-0.03215027,0.07745361,-0.016113281
-0.88879395,1.8613892,9.79599,-0.036743164,0.04966736,-0.014907837
-0.95129395,1.9763947,9.875259,-0.01689148,-0.0135650635,-0.014282227
-1.1051636,2.0890045,9.692703,-0.027267456,-0.05479431,-0.01979065
-1.2181854,2.2039948,9.45491,0.04206848,0.027359009,-0.017944336
-1.1893158,2.0770264,9.517349,-0.009857178,0.011795044,-0.0075683594
-1.121994,1.7943115,9.702316,0.016708374,0.058517456,-0.006652832
-1.0162201,1.6936798,9.750366,-0.058120728,-0.06549072,0.009536743
-0.93927,1.7559662,9.829636,0.052444458,-0.009902954,0.03213501
-0.9440918,2.033905,9.668686,-0.0019226074,-0.041046143,0.047714233
-1.0474701,2.2447357,9.579819,0.023117065,0.070739746,0.038253784
-1.1099854,1.9572144,9.654282,0.016113281,0.04966736,0.0022125244
-1.0787354,1.9236908,9.716721,-0.003753662,-0.008056641,0.00831604
-1.0186157,2.0171356,9.637451,0.032287598,-0.010803223,0.029083252
-0.9561157,2.0937805,9.572601,0.028015137,0.011489868,0.03488159
-0.9440918,2.0219116,9.743149,0.0051116943,0.005065918,0.0104522705
-1.0402527,1.9548187,9.81041,-0.015655518,0.012710571,-0.004501343
-1.0619049,1.9500427,9.711914,-0.009857178,0.028289795,0.004043579
-0.99697876,1.9931641,9.608643,0.028320312,0.010864258,0.02053833
-1.0114136,2.0362854,9.500549,0.042373657,-0.003479004,0.026947021
-1.037857,2.057846,9.409271,0.007858276,0.028900146,0.024810791
-1.0643005,1.9955597,9.702316,-0.019012451,4.8828125E-4,0.012893677
-1.102768,1.9835815,9.651871,0.007247925,-0.0053100586,0.015945435
-1.037857,1.9979553,9.846436,-0.008331299,-0.0025634766,0.018722534
-1.0450592,2.0051422,9.901688,-0.00680542,-0.0040893555,0.00894165
-1.1196136,1.9596252,9.791199,0.020080566,0.007507324,0.0022277832
-1.0522766,1.973999,9.687897,0.030761719,0.016983032,0.012298584
-0.99458313,2.038681,9.531769,0.03656006,0.02217102,0.030319214
-0.93447876,2.0818176,9.507751,0.027709961,0.013931274,0.033981323
-0.9368744,2.0698395,9.541382,0.0090789795,0.01210022,0.022994995
-0.9080353,2.0914001,9.680695,8.392334E-4,-0.007461548,0.014434814
-0.95129395,2.0602417,9.692703,0.009994507,-0.008361816,6.866455E-4
-0.99697876,2.0219116,9.630264,0.0063323975,0.010559082,-0.0050964355
-0.9825592,2.098587,9.5533905,-0.0013122559,0.01789856,9.1552734E-5
-0.9897766,2.1345367,9.603836,0.0011444092,0.0044555664,7.6293945E-5
-1.059494,2.0482635,9.635056,0.007247925,-0.014785767,-0.012435913
-0.99697876,2.1129608,9.685501,-0.0013122559,-0.012939453,-0.0032653809
-0.97294617,2.1321259,9.776764,-0.0028381348,-0.018753052,-0.01121521
-1.1099854,1.9452362,9.853653,0.017929077,-0.029434204,-0.034729004
-1.1700897,1.9692078,9.747955,0.030761719,-0.006225586,-0.015808105
-1.0859375,2.057846,9.5533905,0.04786682,0.013320923,0.008331299
-1.0931396,2.0171204,9.416473,0.04573059,0.009353638,0.0013122559
-1.0426788,2.0243073,9.606247,0.0038909912,0.0053710938,-0.004196167
-1.049881,2.0626373,9.654282,-0.01260376,-0.0028686523,-0.0051116943
-1.081131,2.0362854,9.510147,0.010910034,-0.008666992,-0.010299683
-0.99458313,2.012329,9.745544,0.0011444092,-0.029754639,-0.011520386
-0.9801483,2.057846,9.908905,-0.011688232,-0.020889282,-0.0090789795
-0.93927,2.0099335,9.822418,-0.011077881,0.02583313,-0.01335144
-0.89360046,2.1225433,9.469315,0.011520386,0.05241394,-0.0051116943
-0.8647461,2.2039948,9.034546,0.035949707,0.036834717,-0.007858276
-1.0210266,2.2375488,8.90004,0.0060272217,-0.01171875,-0.033828735
-1.3263702,2.105774,9.068176,-0.06239319,-0.06365967,-0.07017517
-1.4922638,1.9093018,9.572601,-0.14485168,-0.1018219,-0.069869995
-1.3816681,1.8853455,10.057816,-0.18670654,-0.10946655,-0.015182495
-1.2662659,1.9404602,10.228363,-0.14761353,-0.09388733,0.04284668
-1.1508484,2.0482635,10.286011,-0.06147766,-0.095718384,0.08163452
-1.071518,2.1153564,10.225952,0.012145996,-0.08381653,0.09843445
-0.9465027,2.1105804,10.230759,0.041763306,-0.055099487,0.0978241
-0.7589569,2.1417084,10.199524,0.08390808,-0.02822876,0.08987427
-0.66038513,2.2088013,9.997772,0.13981628,0.0017089844,0.06819153
-0.5714264,2.1345215,9.812805,0.1630249,0.029815674,0.026046753
-0.5617981,2.151291,9.620651,0.16178894,0.068603516,-0.022521973
-0.6459503,2.0027466,9.430893,0.14500427,0.10739136,-0.08329773
-0.76856995,1.8230438,9.430893,0.10101318,0.12020874,-0.1300354
-0.85272217,1.8038788,9.373245,0.08299255,0.1278534,-0.13430786
-0.92485046,1.7799225,9.279572,0.0900116,0.11105347,-0.12788391
-0.92485046,1.8493958,9.197891,0.08421326,0.08998108,-0.10772705
-0.8599396,1.9524384,9.257935,0.054595947,0.06890869,-0.092163086
-0.8383026,1.9907532,9.38765,0.012130737,0.057296753,-0.09185791
-0.867157,1.9812012,9.507751,-0.023910522,0.046310425,-0.10406494
-1.0114136,1.9452362,9.397263,-0.025436401,0.041412354,-0.11566162
-1.0979614,1.8853455,9.358826,-0.033981323,0.03164673,-0.11444092
-1.2133636,1.9380646,9.414078,-0.056274414,0.0020141602,-0.0970459
-1.2999268,1.9260864,9.548584,-0.06086731,-0.03036499,-0.08024597
-1.2350006,2.0243073,9.704712,-0.06147766,-0.04928589,-0.046951294
-1.1099854,2.2710876,9.709518,-0.055358887,-0.042266846,-0.014266968
-1.0763245,2.302246,9.788788,-0.053222656,-0.034942627,-0.024353027
-1.0570831,2.302246,9.925705,-0.06147766,-0.032196045,-0.043289185
-1.0114136,2.3453522,9.812805,-0.03552246,-0.017227173,-0.045425415
-1.0138245,2.3597412,9.781586,-0.00680542,-0.01966858,-0.057647705
-1.1003723,2.2183838,9.8007965,-0.008636475,-0.022415161,-0.09063721
-1.1989441,2.1033783,9.853653,-0.023605347,7.9345703E-4,-0.11231995
-1.2951202,1.9260864,9.889679,-0.02848816,0.0068969727,-0.12208557
-1.254242,1.8422241,9.988144,-0.015960693,0.0010986328,-0.1053009
-1.2374115,1.8374329,9.848831,0.01763916,0.013305664,-0.071395874
-1.1917267,1.8973236,9.555801,0.058563232,0.024002075,-0.036575317
-0.99697876,2.0099335,9.423691,0.0811615,-0.009902954,-0.004501343
-0.8358917,2.1225586,9.510147,0.074142456,-0.05570984,0.0031433105
-0.8238678,2.0818176,9.555786,0.053359985,-0.07067871,-0.023742676
-0.8286896,2.0746155,9.471725,0.023132324,-0.037078857,-0.03993225
-0.8310852,2.1656647,9.40686,-0.009246826,-0.025772095,-0.04359436
-0.9008026,2.1273346,9.452515,-0.010467529,-0.06333923,-0.0664978
-1.0162048,1.9763947,9.671082,-0.023605347,-0.09602356,-0.09643555
-1.1773071,1.9164886,9.606247,-0.03916931,-0.06303406,-0.10070801
-1.3455963,1.8805542,9.445297,-0.038864136,-0.034942627,-0.09033203
-1.5018768,1.8254547,9.404465,-0.036117554,-0.046554565,-0.06375122
-1.5115051,1.7032623,9.755157,-0.043762207,-0.099990845,-0.022216797
-1.4105225,1.7511749,10.062622,-0.04711914,-0.116500854,0.045288086
-1.2470398,1.7799225,10.1779175,-0.020858765,-0.10336304,0.10270691
-1.1075745,1.9021149,10.026596,0.026184082,-0.07556152,0.14700317
-1.0691223,1.9955597,9.743149,0.06832886,-0.055404663,0.16073608
-1.0570831,1.9955597,9.534164,0.0753479,-0.05479431,0.16104126
-0.95851135,2.072235,9.500549,0.063446045,-0.05632019,0.16838074
-0.93447876,2.1225433,9.488541,0.050613403,-0.052963257,0.16288757
-1.0090027,2.0338898,9.42128,0.036880493,-0.030670166,0.13874817
-1.0474701,1.9763947,9.349213,0.013046265,-0.015090942,0.13539124
-0.9633179,2.0362854,9.613434,-0.0046691895,-0.056930542,0.15463257
-0.7445221,2.1033783,9.925705,-0.0034484863,-0.09510803,0.1650238
-0.6387329,2.144104,10.125076,0.0011291504,-0.08015442,0.1479187
-0.7277069,2.038681,10.02179,0.009994507,-0.012039185,0.110961914
-0.88397217,1.933258,9.8007965,0.03137207,0.034698486,0.09689331
-0.8911896,1.935669,9.783981,0.041152954,0.024002075,0.11645508
-0.7733917,1.9955597,9.908905,0.03656006,0.004776001,0.15005493
-0.6363373,2.0075378,9.954529,0.044815063,0.005065918,0.1662445
-0.5041046,2.1321259,9.788773,0.08848572,0.0017089844,0.17478943
-0.381485,2.3381805,9.702316,0.1572113,-0.022720337,0.16410828
-0.30696106,2.4507751,9.450104,0.22380066,-0.032806396,0.1149292
-0.45362854,2.4364166,9.14505,0.21647644,-0.013259888,0.0501709
-0.6387329,2.4076538,9.257935,0.13705444,-0.011428833,0.009857178
-0.6291199,2.4459991,9.563004,0.05091858,-0.016311646,0.002532959
-0.5714264,2.5010986,9.565399,0.036880493,0.019119263,0.004058838
-0.10258484,2.4819336,9.613434,0.0710907,0.011184692,-0.013656616
-1.0138245,2.7143402,8.657425,0.052139282,0.14251709,-0.09185791
-0.44639587,2.7718353,9.973755,-0.13508606,-1.2207031E-4,-0.073532104
-0.70124817,2.4316254,9.647079,-0.056289673,0.0072021484,-0.13858032
-0.92485046,2.3884888,9.781586,-0.053833008,0.05027771,-0.18928528
-1.0931396,2.1776428,9.935318,-0.076431274,0.068603516,-0.18287659
-1.1460419,2.124939,9.767181,-0.038253784,0.099746704,-0.14988708
-1.0474701,2.3046417,9.639862,0.037490845,0.040802002,-0.085739136
-0.73731995,2.4603577,9.798401,0.07810974,-0.046539307,-0.042678833
-0.66519165,2.441208,9.832031,0.067108154,-0.05937195,-0.05001831
-0.8022461,2.3213959,9.579819,0.067108154,-0.005004883,-0.07902527
-0.929657,2.302246,9.382843,0.07688904,0.0029296875,-0.07963562
-0.85513306,2.2782898,9.565399,0.061309814,-0.051742554,-0.0552063
-0.84550476,2.3501587,9.546173,0.07322693,-0.088394165,-0.031066895
-0.7589569,2.3381805,9.3059845,0.13278198,-0.13269043,-0.021911621
-0.52093506,2.5705872,8.950485,0.18409729,-0.21148682,-0.0063323975
-0.36946106,2.834137,8.55896,0.2271576,-0.35717773,-0.036865234
-0.35263062,2.8652954,8.645416,0.23937988,-0.5770874,-0.14042664
-0.33581543,2.9084015,9.279572,0.18257141,-0.7292023,-0.24884033
-0.36946106,2.747879,9.702316,0.06954956,-0.6788025,-0.35177612
-0.35021973,2.7790222,9.882477,-0.0046691895,-0.5208893,-0.44921875
-0.6363373,2.5873566,9.481323,0.18623352,-0.39505005,-0.6214752
-0.40553284,2.5346527,9.86084,0.36827087,-0.7328644,-0.7121887
-0.030456543,2.6784058,10.319641,0.5072479,-0.8629761,-0.67492676
0.10418701,2.558609,10.69194,0.5384064,-0.77838135,-0.6938629
0.11380005,2.2255707,10.302826,0.5002136,-0.5208893,-0.6361389
-0.03526306,2.3501587,9.786392,0.45133972,-0.2927246,-0.45593262
-0.01121521,2.7982025,9.558197,0.38934326,-0.21881104,-0.25465393
0.17631531,3.0928955,9.656677,0.30015564,-0.19529724,-0.13858032
0.21238708,3.1336212,9.438095,0.19569397,-0.09602356,-0.13400269
0.19314575,3.0330048,9.181076,0.18745422,-0.08229065,-0.16239929
0.08734131,3.0018463,9.238724,0.33802795,-0.15711975,-0.17218018
0.15228271,2.9730988,9.397263,0.40797424,-0.2255249,-0.14042664
0.33259583,3.0281982,9.392456,0.3126831,-0.16139221,-0.051849365
0.38067627,2.9994507,9.125824,0.15202332,-0.017532349,0.0104522705
0.36386108,3.5648956,9.27475,0.053970337,0.020645142,0.06451416
0.42396545,3.4714508,9.298767,0.08604431,0.008117676,0.051376343
0.16189575,3.1503906,9.476532,0.095214844,0.037139893,-0.039031982
0.18112183,3.241455,9.065781,0.041763306,0.16236877,0.014724731
0.36865234,3.3756104,9.176285,0.03503418,0.11656189,0.080093384
0.375885,3.5696716,9.671097,0.17462158,0.035308838,0.042526245
0.2724762,3.5193634,9.853653,0.3496399,0.10586548,-0.04208374
-0.1338501,3.3947906,9.481323,0.33283997,0.36761475,-0.06651306
-0.28530884,3.4115448,9.327606,0.07017517,0.59669495,0.05078125
0.24603271,2.8365326,10.559845,-0.28474426,0.66908264,0.2523651
0.28450012,3.088089,10.795242,-0.43226624,0.97299194,0.43501282
0.11619568,3.850006,10.146683,-0.18792725,1.2591858,0.56726074
-0.056915283,4.2069855,9.3780365,0.14012146,1.2790375,0.48905945
-0.48727417,3.857193,8.631027,0.23815918,1.2323151,0.3201599
-0.9897766,3.5073853,8.441254,0.15232849,1.1199036,0.21632385
-1.1556702,3.7445831,8.640625,0.11994934,0.8963318,0.20837402
-0.9753418,3.838028,8.830383,0.13796997,0.7115326,0.17111206
-1.0619049,3.8404236,8.8832245,0.08329773,0.66664124,0.07582092
-1.3047333,3.7924957,8.864014,0.020080566,0.64097595,-0.013366699
-1.6124878,3.6391602,8.892838,0.03565979,0.50231934,-0.08514404
-1.7879944,3.4666595,8.82077,0.09643555,0.3224182,-0.08911133
-1.8697357,3.483429,8.909653,0.1877594,0.10006714,-0.041168213
-1.749527,3.5936432,9.104218,0.20822144,-0.04838562,0.008926392
-1.5595856,3.6128082,9.041763,0.14653015,-0.019958496,0.028167725
-1.4970856,3.8020935,8.974503,0.06222534,0.05822754,0.019622803
-1.5379333,3.955429,9.202698,0.026184082,0.06036377,-0.0060424805
-1.6341095,3.955429,9.344421,0.051849365,0.061279297,-0.035369873
-1.5932465,3.8667908,9.207489,0.109558105,0.0783844,-0.05857849
-1.6557465,3.8356323,8.912048,0.15629578,0.07624817,-0.078430176
-1.6773987,3.86438,8.70546,0.17553711,0.037460327,-0.09277344
-1.7831879,3.8931274,8.400421,0.14530945,0.029815674,-0.1028595
-1.901001,3.857193,8.436447,0.07749939,-0.018127441,-0.11172485
-1.8649292,3.8212585,8.734314,0.0048065186,-0.101501465,-0.1040802
-1.8697357,3.857193,9.036957,-0.05445862,-0.1348114,-0.09370422
-1.802414,3.7637482,9.344421,-0.07185364,-0.13265991,-0.08331299
-1.6244965,3.7086487,9.452499,-0.05230713,-0.106399536,-0.057662964
-1.5066986,3.7661438,9.221909,5.340576E-4,-0.05783081,-0.01826477
-1.5403442,3.8859406,9.0225525,0.073532104,-0.06272888,-8.392334E-4
-1.5595856,3.9003143,8.924057,0.109558105,-0.09051514,-0.013977051
-1.5619965,3.8524017,8.957687,0.08482361,-0.09692383,-0.035980225
-1.5764008,3.778122,8.960083,0.01763916,-0.056610107,-0.052764893
-1.5379486,3.7182312,8.842392,-0.023590088,-0.030334473,-0.05429077
-1.4634094,3.6846771,8.9192505,-0.013519287,-0.07646179,-0.040252686
-1.4850616,3.7613678,9.075378,0.02130127,-0.13082886,-0.024673462
-1.362442,3.8428192,9.128235,0.060699463,-0.13082886,-0.010925293
-1.3455963,3.9242706,8.950485,0.0664978,-0.07157898,-0.020401001
-1.3480072,3.8212585,8.8471985,0.024658203,-0.03340149,-0.03994751
-1.2518463,3.75177,8.739105,-0.004058838,-0.059051514,-0.03627014
-1.1845093,3.8332367,8.763123,-0.010772705,-0.10548401,-0.039642334
-1.1748962,3.9194946,9.020142,-0.041931152,-0.13726807,-0.06437683
-1.220581,3.8452148,9.37323,-0.067276,-0.14367676,-0.10652161
-1.3287659,3.6799011,9.488541,-0.0501709,-0.10183716,-0.13951111
-1.4225311,3.5864563,9.30838,0.002670288,-0.06150818,-0.13127136
-1.4441833,3.7374115,9.041763,0.06161499,-0.053268433,-0.07965088
-1.3239746,3.9242706,8.957687,0.097961426,-0.102752686,-0.03781128
-1.1652832,4.077606,9.149857,0.10345459,-0.1641388,-0.030166626
-1.0667114,4.080017,9.354019,0.10284424,-0.17758179,-0.05857849
-0.9849701,4.039276,9.320389,0.10896301,-0.1394043,-0.09246826
-0.929657,4.0895844,9.140244,0.11903381,-0.086868286,-0.11355591
-0.9825592,4.1470947,8.813583,0.11842346,-0.054489136,-0.1453247
-1.1147919,4.087204,8.5997925,0.11659241,-0.072509766,-0.19847107
-1.2037506,4.000946,8.566147,0.09887695,-0.120773315,-0.24214172
-1.2999268,3.9602356,8.6358185,0.052749634,-0.12931824,-0.2644348
-1.352829,3.86438,8.940872,-0.024505615,-0.12107849,-0.2690277
-1.3215637,3.8356323,9.267563,-0.0572052,-0.096954346,-0.24397278
-1.2999268,3.8308563,9.322784,-0.0058898926,-0.06854248,-0.2118988
-1.2903137,3.9386597,9.104218,0.06100464,-0.025787354,-0.18319702
-1.3383942,3.9674072,8.827972,0.0900116,-0.003479004,-0.17677307
-1.4129181,3.816452,8.751114,0.0640564,-0.008361816,-0.18960571
-1.4682312,3.7110443,8.510925,0.028320312,0.0124053955,-0.18289185
-1.535553,3.890747,8.311554,0.012130737,0.013916016,-0.15447998
-1.6461334,3.943451,8.335571,-0.02330017,-0.03250122,-0.15478516
-1.8745575,3.8044891,8.604584,-0.09780884,-0.057540894,-0.17341614
-2.0572815,3.706253,8.784744,-0.17326355,-0.04135132,-0.15234375
-2.1534424,3.6703186,8.938477,-0.20288086,-0.051132202,-0.09309387
-2.071701,3.732605,9.231522,-0.18641663,-0.11984253,-0.008483887
-1.7134552,3.9290771,9.546173,-0.1448822,-0.15557861,0.08345032
-1.5379486,4.1351166,9.226715,-0.06362915,-0.07310486,0.1179657
-1.6581573,4.3243866,8.83519,-0.02268982,0.00843811,0.08406067
-1.771164,4.2141876,8.902435,-0.08287048,0.010894775,0.031219482
-1.8649445,3.9913635,9.231506,-0.16259766,-0.011413574,-0.0032958984
-1.8985901,3.816452,9.73114,-0.19099426,-0.032180786,0.0031280518
-1.8120422,3.7445831,9.913696,-0.16014099,0.007843018,0.055664062
-1.7230835,3.7302094,9.733536,-0.08073425,0.07929993,0.11338806
-1.4946747,3.7901,9.563004,0.009063721,0.10496521,0.17538452
-1.254242,3.8859406,9.361237,0.06983948,0.09854126,0.23464966
-1.0450592,3.943451,9.015335,0.12359619,0.09487915,0.25265503
-0.89601135,4.1231384,8.619003,0.105270386,0.1272583,0.21722412
-0.88157654,3.9721985,8.626221,-0.09326172,0.17857361,0.07948303
-0.85513306,3.627182,8.51091,-0.3757782,0.31173706,-0.059799194
-0.8791809,3.8092804,8.434036,-0.53796387,0.32121277,-0.17219543
-1.2494202,3.1767426,8.854401,-0.47627258,0.11381531,-0.28123474
-1.5042877,2.860489,9.733536,-0.29606628,-0.110061646,-0.24887085
-1.220581,2.8556976,9.968948,-0.07583618,-0.13082886,-0.09980774
-0.9008026,3.4067688,9.303589,0.13795471,0.03501892,0.017166138
-0.960907,3.9578247,8.825577,0.2619629,0.15138245,-0.015213013
-0.929657,3.9242706,8.345169,0.24394226,0.26348877,-0.15661621
-1.7254791,3.5912476,8.715088,0.14804077,0.3343506,-0.2867279
-1.7350922,3.437912,8.29953,0.004486084,0.46446228,-0.33132935
-1.9803467,3.5289612,8.508514,-0.023010254,0.33525085,-0.25497437
-1.9370575,3.5960388,9.279572,-0.03919983,0.13580322,-0.2164917
-1.9034119,3.7901154,9.572601,-0.044067383,0.06951904,-0.19540405
-1.9538727,3.9698029,9.286758,-0.012298584,0.07989502,-0.21372986
-2.0548706,3.8859406,9.236328,-0.0016021729,0.009643555,-0.2671814
-2.266449,3.4930115,9.726349,-0.058410645,-0.055404663,-0.29437256
-2.3650208,3.3324738,10.173111,-0.09324646,-0.021194458,-0.2131195
-2.0909271,3.4666595,9.834427,-0.012908936,0.063705444,-0.07536316
-1.6244965,3.8619843,9.433289,0.11659241,0.062179565,0.04069519
-1.3191528,3.9937592,9.221909,0.20913696,-0.027297974,0.054138184
-1.3239746,3.9769897,9.233917,0.2980194,-0.1247406,0.014419556
-1.6413422,3.8691864,9.253143,0.3838501,-0.14245605,-0.03414917
-1.9466705,3.6247864,8.996109,0.38415527,-0.035247803,-0.05949402
-2.1750946,3.6846771,8.03772,0.31817627,0.1715393,-0.078430176
-2.480423,3.7350006,7.4227905,0.24914551,0.21124268,-0.13096619
-3.009369,3.3372803,7.804718,0.17248535,0.07287598,-0.23817444
-3.3026886,3.0281982,8.467682,0.06588745,0.02003479,-0.21832275
-3.329132,3.0281982,9.089798,-3.8146973E-4,0.0566864,-0.09095764
-3.0430298,3.4235382,9.325195,-0.026657104,0.20237732,0.07946777
-2.6847992,3.8140564,9.418869,-0.020248413,0.29553223,0.17721558
-2.3890533,4.048874,9.534164,-0.01473999,0.30989075,0.17599487
-2.1799011,4.0464783,9.474121,0.022827148,0.28546143,0.11216736
-2.288086,3.917099,9.118622,0.08544922,0.27079773,0.018692017
-2.5477448,3.5792694,8.8832245,0.08390808,0.27018738,-0.04421997
-2.5213013,3.4211426,8.99852,0.03779602,0.27905273,-0.03842163
-2.3650208,3.2869568,9.205093,0.033813477,0.31019592,0.018692017
