Acceleration x,Acceleration y,Acceleration z,Rotation x, Rotation y, Rotation z
-5.6598063,-5.817312,5.574766,-0.31643918,-0.5254594,-0.044280395
-5.995189,-5.534762,7.341107,0.050011486,-1.4224113,0.071833335
-5.87062,-5.295313,7.288452,-0.039470635,-1.2700785,0.08142071
-5.3483834,-5.142066,7.302812,-0.25145805,-0.81627625,0.10059545
-5.1902757,-5.4102488,6.8719964,-0.33667913,-0.41360667,0.108052306
-5.0800796,-5.6880093,6.7044573,-0.105516925,-0.1547476,0.08887757
-4.8836427,-5.812523,5.651354,0.24069372,-0.25594765,0.111248106
-4.893226,-5.4964504,5.153523,0.47079068,-0.9036278,0.16238075
-5.0321712,-5.1755886,6.402886,0.2715864,-1.4714133,0.22949237
-5.2190285,-5.1516438,7.489496,-0.18221585,-1.0389162,0.20925237
-5.046547,-5.295313,7.254941,-0.3963338,-0.23570758,0.19007763
-4.8596926,-5.3240466,7.183139,-0.14067054,0.32994735,0.21031766
-4.390159,-5.2139006,6.771471,0.16399485,0.53980434,0.22203556
-4.198513,-5.0031853,5.7901697,0.29821807,0.15630944,0.16344605
-4.5291047,-4.864305,6.18269,0.2865002,-0.5425034,0.16025028
-4.581809,-4.600911,7.1544166,0.0105969375,-0.7193371,0.20392609
-4.2320547,-4.538655,7.1879234,-0.2631758,-0.4988276,0.15918502
-4.313505,-4.687113,7.6139517,-0.24613155,-0.31027594,0.04413656
-4.6105595,-4.8786716,7.561296,-0.03201356,0.0082378825,-0.0027350252
-4.783043,-5.041497,7.211857,0.17784336,0.20744218,0.07502922
-4.85012,-4.9505067,6.7283864,0.26839077,0.15737481,0.16664189
-4.811792,-4.7781034,6.6661572,0.24602026,-0.03756841,0.16877241
-4.735134,-4.725425,6.64701,0.14375497,-0.114267364,0.11231346
-4.7303443,-4.8164153,6.790614,-0.025621908,-0.062069435,0.09207345
-4.850125,-4.869094,6.8097615,-0.1832809,0.0540443,0.09846504
-4.9219933,-4.9361396,6.8289084,-0.19073774,0.04978326,0.097399786
-5.290914,-5.113332,7.2549357,-0.104451366,-0.073787294,0.10485664
-5.439442,-5.098964,7.216641,-0.030948166,-0.09296202,0.21883984
-5.1184344,-4.945718,6.8815627,0.073447675,-0.018393565,0.3658462
-4.5674505,-4.7493696,6.489042,0.11712349,0.1435265,0.36691144
-4.390573,-4.663164,6.374043,-0.040530406,0.16164103,0.25719118
-5.0805106,-5.0893836,6.718692,-0.24399564,0.16377167,0.13468592
-5.3631983,-5.4006667,6.713903,-0.3345429,0.1957297,0.21884179
-4.7738934,-5.170796,6.4506245,-0.18007958,0.06044134,0.41058925
-4.1223025,-4.667953,6.5702925,-0.006441512,-0.17072073,0.44680825
-3.7629738,-4.2896237,6.977171,-0.021355085,-0.27618173,0.2806272
-4.5151963,-4.4380817,8.06378,-0.06609604,-0.13982786,0.05372611
-5.487813,-5.041493,7.86273,-0.065030664,0.23088397,0.0015282388
-5.9381924,-5.3958774,7.307454,-0.08740108,0.38534728,0.2081894
-5.8232136,-5.3192534,7.0920444,-0.07994412,0.46630743,0.5107243
-5.535752,-4.806833,7.111189,-0.038398728,0.69001293,0.7536044
-4.989567,-3.83467,6.6420774,0.0031466647,1.1044005,0.8654571
-5.0326967,-3.6574779,6.80004,0.022321522,1.4932218,0.74934345
-6.5946274,-4.203421,6.579843,-0.10444472,2.1749907,0.5842277
-7.332477,-4.883456,4.765631,-0.34838995,2.637315,0.7589309
-6.791084,-4.4141364,3.9422936,-0.30897507,1.9661992,1.1296425
-5.2291703,-3.8011465,5.5746007,-0.03626751,1.0969442,1.2478869
-5.425617,-3.6143763,7.001074,-0.07568214,1.0532686,1.0358995
-6.8198576,-4.0453844,6.5223885,-0.6434675,1.4772435,0.8782406
-7.581662,-4.4859705,4.310869,-1.0472022,1.8170627,0.9197859
-7.600836,-3.628743,2.7790804,-0.8682379,1.4420902,1.0646617
-8.506377,-2.3596637,3.679002,-0.4538502,0.6793615,1.174384
-10.006022,-1.2390428,5.857008,-0.46663326,0.725168,1.1967545
-10.20247,-1.1145294,4.047583,-0.7063175,1.9566127,1.360805
-8.16623,-2.7188368,1.1323997,-0.482612,2.8610215,1.4843758
-6.2210226,-3.1833675,-0.67702556,-0.09379071,2.6724699,1.4396347
-6.1731205,-2.5751674,1.5584224,0.060672622,1.3611308,1.3767842
-8.3962345,-1.3252441,3.7890837,0.26839912,0.7709749,1.3416306
-9.359268,0.33653158,4.7608075,0.1991571,0.72729915,1.3565443
-10.633728,2.3143797,4.6794295,0.0947614,1.207733,0.84628314
-11.946519,0.53766876,1.8264745,0.08197835,1.8021502,-0.020841332
-13.513242,-2.508121,-0.9690379,0.25987747,1.646622,-0.2157845
-11.457837,-1.8663981,-0.56694657,0.113936484,0.42583,0.4798326
-7.14579,0.18807364,1.7020093,-0.45065308,-0.6618039,1.0060728
-3.7728138,-0.27166823,-0.41377312,-0.54226565,-0.4753827,0.45746216
-3.758449,-0.49675012,-1.6583521,-0.18646748,-1.0932354,-0.6653255
-6.676282,-4.988812,0.24680454,0.29503176,-2.0455809,-1.9734691
-9.229986,-7.8861437,2.558842,0.6806572,-2.0125577,-2.5529723
-8.985645,-8.441665,4.674619,1.1419165,-1.3180057,-2.2941132
-7.0596023,-7.3593564,7.4174714,1.3166199,-0.18776096,-1.7902437
-5.0808573,-1.8663975,7.4270425,0.6838534,1.7744546,-2.022471
-7.1554437,-3.274357,5.631978,-0.24825208,4.4567885,-4.2265015
-7.55312,-12.253692,-2.9651754,-0.32175514,7.1497746,-5.6315837
-8.712593,-9.2797365,-9.829494,1.1056981,5.9311132,-4.6057353
-9.15818,-9.667644,-8.02965,1.6319385,2.7310615,-3.9442062
-11.438788,-6.2962027,-1.4286101,0.28118435,-0.007730748,-2.2323277
-15.429844,-2.278249,5.852159,-0.43680316,-1.0133394,-0.717523
-17.145092,-3.3940809,5.158066,0.22259508,0.45352858,0.16664577
-13.168427,-7.9723444,-0.08351797,0.4068858,3.205104,0.12936157
-5.1959257,-9.318048,-8.2546425,0.5453701,3.5694246,-0.27650377
-1.5012653,-4.1076446,-7.1439037,0.3078078,-1.4021688,-0.4671891
-0.14535907,-3.4898663,0.7065022,-1.1430812,-5.057088,0.52457124
-0.31304565,-10.6446,0.8309611,-1.5681214,-4.0727844,1.3661294
-5.041928,-13.996885,2.0516047,-0.5113801,-0.88658136,0.8185839
-9.794767,-8.298001,6.3741155,-0.5465338,0.800796,0.32430163
-8.9946375,-5.922668,0.89319384,-1.6107321,0.04552408,0.40526164
-10.259501,-5.2330546,-7.459827,-0.83522034,-0.3603414,0.40845737
-14.006195,-5.3910913,-7.522054,1.2015635,1.1747034,0.3456068
-12.655079,-7.5748653,-2.0411305,1.4913152,2.45515,1.0625292
-1.9611778,-3.8538287,3.032913,0.66999686,1.9725856,1.4130008
3.2899513,0.07792215,3.4924502,0.05960081,-0.91640913,0.051594038
-2.3396716,0.5759759,2.6260347,-0.90233225,-3.837362,-1.1116738
-4.0213685,0.2982151,0.663435,-0.4911405,-3.4389534,-1.4014255
-6.392994,-1.7562568,-6.4737306,1.3815926,-0.85888505,-2.06615
-7.0637546,-5.6113844,-6.2774687,2.0100982,0.15311518,-2.3111606
-6.7906528,-13.393475,0.3283606,1.4252684,0.92436594,-2.381468
-6.4983864,-12.330321,8.667025,0.9043544,2.380581,-2.696786
-3.5086908,-7.4407744,7.834116,0.37917948,1.6029387,-2.8118343
-2.4067168,-2.0435956,7.0059953,-0.99394524,-1.3212098,-1.6805247
-2.9002028,-1.2294694,3.3536437,-1.9899668,-1.556633,-1.3023561
-10.005507,-11.147444,-11.691368,-0.846939,-0.25275058,-2.0693457
-15.079354,-14.083087,-9.5277195,2.011163,0.0945253,-2.3676195
-13.618044,-12.909788,-2.3857641,2.148582,1.0362183,-1.9958427
-3.2211938,-8.982825,3.1908967,0.51340234,1.7680541,-0.8719897
6.246167,-11.468306,6.4842386,-1.0195119,1.3866898,0.46065494
4.1763854,-15.740074,4.205708,-1.5883627,-0.47112986,0.097400054
-3.4128275,-15.400057,1.1086285,-0.93216044,-0.41573623,-0.2754422
-9.674886,-16.027412,-3.3000426,-0.67969304,0.1136997,0.4915475
-11.030784,-13.69518,-2.1512017,-0.36650562,0.31503445,1.2915603
-7.1163907,-3.5281794,1.884099,0.38557038,-0.22185843,1.3821077
-3.3553157,-2.235155,2.4106522,0.70727986,-0.818406,0.16877261
-1.8269272,-7.7185354,1.2043716,0.029772226,-0.29110068,-1.3620111
-1.0651263,-10.917574,-1.8544129,-0.8128513,0.6985291,-1.4674723
-1.8700387,-9.222275,-3.0367591,-0.6509313,0.6367438,-0.5438887
-4.8836813,-8.001085,-0.8874701,0.14588577,-0.7353157,0.0760946
-5.7700443,-7.445564,1.1612954,0.5144669,-1.0335896,-0.64934987
-3.6188035,-6.6697493,1.7644376,0.27797833,-0.5105452,-1.7039608
-0.86866593,-8.417727,0.10340802,-0.23973979,-0.21014099,-1.6720029
-1.1082201,-9.2318535,-1.3517876,-0.10445138,0.41197285,-0.23283191
-8.783674,10.316757,-2.409676,0.75947726,0.9467351,0.45319778
-4.049991,-10.180071,4.334972,1.037511,1.1129161,-1.1777208
-2.9575992,-18.010048,-2.6777363,-0.41763902,1.649809,-2.0831947
-1.1944435,-14.834958,-2.9649448,-0.38674644,-0.6096151,-2.2472453
-1.6879297,-8.163912,0.62996733,-0.020295851,-2.2373378,-1.3449671
-3.2211003,-5.6401196,0.0411883,-0.11936542,-1.9987187,-0.54815
1.9629525,-17.009155,-0.95447147,-0.2152392,-1.7270766,-0.3489458
1.6946514,-19.65746,1.4724537,-0.7947426,-2.1510518,0.8249746
-7.422945,-7.2683725,2.8175547,-1.3231133,-1.5065672,0.19327332
-2.4305391,-7.7376924,-0.7821417,-0.44000995,-0.14303002,-2.0949128
-1.7262324,-4.543444,-1.6868516,1.3134137,-0.30495012,-2.3431191
-2.1488073,-6.573962,2.5683649,1.8705574,-0.8077451,-2.4560328
-0.20360567,-11.36294,0.23238653,0.7115509,0.67936295,-1.9905126
1.9811546,-13.829264,-1.5435325,-0.5507862,-0.13662873,-0.3840952
1.8853165,-13.431779,2.3242238,-0.9864788,-1.4021617,0.45639777
0.86478245,-11.075602,3.6262379,-0.70098794,-0.6554117,0.35732833
0.122136295,-9.595807,1.2567518,0.054284044,0.48761624,0.34987158
-0.8792332,-7.929242,-0.7010668,0.5485665,0.9009387,0.42017904
-1.7656146,-7.321042,-2.78813,0.36853716,0.6324924,0.17623377
-1.8374965,-7.7712064,-2.67325,0.12885305,-0.3976172,-0.1966084
0.83596325,-5.898715,1.6636156,0.055350054,-0.7875035,-0.21152201
-0.050418124,-5.606587,1.1705679,-0.37182042,0.32569712,0.568251
-2.4124804,-10.960665,-1.2659341,-0.8703636,0.4801605,0.6513416
-3.3467736,-15.495828,-1.8164239,-0.6242875,-0.106799506,-0.22537024
-2.3071036,-12.612863,0.5530538,0.17572558,-0.65434474,-1.0818422
-0.12713464,-10.304575,3.305478,0.26414263,-0.9334436,-1.4323137
-0.8793632,-12.555393,0.64399517,-0.58380693,-0.8492876,-1.4674673
-0.15591057,-12.368624,-0.9739583,-0.9651711,-1.1433002,-1.3311136
0.09321597,-6.506914,-0.23200354,-0.5720887,-0.87591887,-1.0498838
2.3929644,-2.7858777,-4.5449433,-0.15770097,-0.37950584,-1.2267176
4.304628,-5.5634856,-3.8891518,0.6263332,-1.621603,-0.58116776
2.9103823,-10.079493,3.4346974,0.53045964,-2.1552997,0.036685128
0.8118341,-13.857996,1.2901922,-0.3537089,-0.4966843,0.030293614
-0.38597345,-16.645182,0.74448913,-0.44425613,0.22343403,0.16664742
0.888464,-12.512292,1.6731304,0.039373714,0.45353115,0.6268413
2.48391,-10.496132,0.40940255,0.78612363,1.0468831,1.1360373
1.918537,-10.936718,-0.43308413,1.0300692,1.1534095,1.385309
0.7494766,-9.533547,-0.8782637,0.61781234,0.8071992,1.3746564
-0.57290137,-7.6562676,-1.3378038,0.10009448,0.25006655,1.2968923
-1.4736562,-7.062434,-0.6724384,-0.12041488,-0.19095238,1.1733218
-2.6570902,-8.207001,0.1125979,-0.19285262,-0.18029957,1.0572082
-4.1902795,-10.357251,0.50032705,-0.3142925,0.07749441,0.7738482
-3.2272687,-10.931929,0.61520684,-0.44425446,0.40026945,0.2465428
-0.3861179,-9.878353,-0.38045847,-0.5188227,0.3885517,0.03775121
0.14568779,-8.791255,-0.8591458,-0.26102874,0.10199602,0.24121661
0.5577142,-8.427293,-0.68682414,0.11820527,0.08708252,0.2635872
-0.19930549,-8.973236,-0.8591542,0.07772545,-0.0673805,0.17410514
-1.5121012,-10.045967,-0.8065033,-0.069280736,-0.10359929,0.09207991
-1.9576946,-10.304572,0.25138238,0.0052878964,0.24261156,0.10486315
-2.1876855,-10.347672,0.25137815,-0.13426144,0.29054856,0.24228221
-2.245194,-10.12259,-0.15550679,-0.15982756,0.058321323,0.1890191
-1.2678092,-9.169583,-0.4666551,0.13525061,0.07430046,-0.09647146
-0.9420239,-8.824777,-0.14594154,0.1554908,-0.07164046,-0.15186508
-1.6750877,-9.112116,-0.12679842,-0.21202493,-0.20053716,-0.117776595
-1.7086403,-9.926242,-0.46188092,-0.35583535,-0.096141145,-0.24880391
-0.8654084,-10.505708,-0.50017977,-0.18326244,-0.035420943,-0.2796965
-0.702523,-10.414717,-0.45710248,0.07559678,-0.018376542,-0.14227743
-0.7839874,-9.878351,-0.22255191,0.20236333,-0.05246479,-0.062382616
-0.82712233,-9.79215,-0.2177693,0.19490668,-0.013049856,-0.038946744
-0.7600604,-9.931029,-0.16033149,0.19171107,0.063649304,0.04201335
-0.7121631,-9.835251,-0.045451745,0.15229651,0.11478213,0.14534397
-0.8733638,-9.820899,-0.13590638,0.1032741,0.1339384,0.21777418
-1.8555347,-9.073818,-0.27950567,0.12990545,0.1999845,0.18368566
-1.6255388,-9.318056,-0.32258147,0.12244833,0.1488516,-0.0038008136
-1.194314,-9.696385,-0.13110253,0.0489449,0.07002185,0.028157
-1.2565798,-9.787375,-0.23162034,0.022313064,0.13500269,0.09739903
-1.3092632,-9.691596,-0.23161468,0.018051758,0.08919609,0.0782242
-1.232585,-9.567084,-0.10715137,-0.03840746,-0.08870317,0.042005155
-1.107995,-9.796954,-0.12629303,-0.06716982,-0.2090782,0.0015250462
-1.146305,-9.892735,-0.116713695,0.004202578,-0.1313142,-0.016584527
-1.1798236,-9.840055,-0.11192119,0.046812866,-0.06313759,-0.010193036
-1.2037601,-9.734697,-0.1980785,0.012724183,-0.079116784,-0.0016710191
-1.1989493,-9.614974,-0.33210415,-0.013907657,-0.08550862,-0.0069974284
-1.1462271,-9.557507,-0.3560326,-0.004320536,-0.03224569,0.0015245884
-1.0791312,-9.701177,-0.19327466,-0.01390816,-0.0034838244,0.011111869
-1.1030676,-9.796955,-0.054450862,-0.03201789,-0.021593552,0.001524405
-1.1844982,-9.758644,-0.044871524,-0.013908663,-0.01839801,-0.0027367403
-1.246764,-9.705965,-0.15017617,0.003135303,-0.0034845704,4.5895844E-4
-1.2994473,-9.658075,-0.24112031,0.0042003146,-2.890285E-4,-0.008063242
-1.3617132,-9.715545,-0.14059116,0.005265327,-0.021594547,-0.019781232
-1.4191877,-9.7251215,-0.17888016,0.016982974,0.033798907,4.586837E-4
-1.4143771,-9.696388,-0.12621933,-0.016040446,0.02208076,0.027090179
-1.2035462,-9.806535,-0.11663999,-0.020301752,-0.032247927,0.016437452
-1.1172855,-9.787379,-0.1405685,-6.199663E-5,-0.0578145,0.004719463
-1.1939249,-9.658076,-0.1692838,0.014851441,-0.032248423,0.006849899
-1.237026,-9.610188,-0.18363863,0.003133291,-0.0066823508,0.007915071
-1.2226329,-9.696389,-0.25543547,0.002067776,0.038058467,0.0068497155
-1.1699107,-9.667655,-0.13575898,-6.300246E-5,0.06468981,0.022828577
-1.2513411,-9.725122,-0.15490064,-0.009650626,0.07534219,0.010045323
-1.3375629,-9.78738,-0.097452976,0.003132285,0.05510194,4.5785995E-4
-1.2944226,-9.801747,-0.1261683,-0.002194284,-0.0066835945,-0.0027380222
-1.3231503,-9.74428,-0.20753878,0.015914945,-0.0013575254,0.006849258
-1.3135484,-9.624556,-0.21231994,0.011653638,0.019947495,0.014306012
-1.2033322,-9.624556,-0.22188795,0.018044969,0.0476441,0.024958553
-1.1506097,-9.658078,-0.20752177,0.008457345,0.030599635,0.013240564
-1.2464137,-9.758648,-0.21230292,-0.0064565954,-0.0013585202,-0.013391116
-1.3134706,-9.84006,-0.12134745,-0.017109482,-0.035447203,-0.02297858
-1.2128367,-9.753859,-0.08304713,-0.005391835,-0.016272709,-0.009130244
-1.155323,-9.638924,-0.12612295,0.007391076,0.03592496,0.007913881
-1.2511271,-9.648501,-0.13090411,0.015912933,0.058295242,0.010044316
-1.3133928,-9.701181,-0.15961944,0.018043209,0.06788237,0.00258738
-1.4283615,-9.744282,-0.097384945,0.018042957,0.054033693,-0.00593482
-1.4187597,-9.773016,-0.05908462,0.020173233,0.045511335,4.5666925E-4
-1.2510493,-9.74907,-0.16917609,0.022303509,0.03485845,0.004717632
-1.1887445,-9.686814,-0.26490706,0.006324304,-0.027992345,0.014304913
-1.1743516,-9.653292,-0.16916475,-0.012850692,-0.104691565,0.015370085
-1.2845291,-9.667659,-0.15001175,-0.010720416,-0.1110834,0.012174202
-1.3851242,-9.701182,-0.1691534,0.03188987,-0.025862567,0.0025867387
-1.3851048,-9.667659,-0.16436091,0.0052580344,-0.045037556,0.016435072
-1.3659207,-9.71076,-0.32710755,0.0020619924,-0.047168337,-0.002739762
-1.3467364,-9.65808,-0.1691364,0.026562802,-0.035450682,0.0057822545
-1.2185633,-9.729905,-0.13597488,-0.00431448,-0.036500752,0.028158382
-1.3048087,-9.859207,-0.15033668,0.015925584,-0.053544912,0.031354193
-1.3814721,-9.873574,-0.0785355,0.05534039,-0.073784865,-0.0027342183
-1.3575206,-10.1226015,-0.20299444,0.075580455,-0.06739322,-0.030431049
-1.4293926,-10.026822,-0.15034057,0.097951055,-0.06526264,-0.076237366
-1.2760797,-9.1408615,-0.32266784,0.13203955,-0.02158678,-0.062388916
-1.0844371,-9.399466,-0.48542142,0.1086038,-0.0865678,0.07076905
-1.0988151,-10.323738,-0.44712803,0.0926249,-0.07804564,0.07822591
-1.1898518,-10.170491,-0.34181905,0.1501492,-0.007738184,-0.034691997
-1.2281857,-9.6963825,-0.31788617,0.22152191,-0.025847606,-0.14228359
-1.0125873,-9.265375,-0.5189344,0.23856618,-0.048218083,-0.21259096
-0.7826155,-9.030714,-0.42319906,0.21086939,0.012501993,-0.14441408
-0.9311463,-9.485667,-0.12162994,0.15121469,0.14459473,0.01217968
-0.93594193,-9.725116,0.11771035,0.081972614,0.24899061,0.08887868
-0.40412623,-9.715539,0.050693437,0.041492652,0.3001233,0.15812083
-0.1693632,-9.725116,-0.14078116,0.021252707,0.32995075,0.24653773
-0.58619964,-9.729905,-0.15514295,-0.014966195,0.22555499,0.2039272
-1.5683945,-9.720326,0.3426863,-0.026684036,0.018893916,0.050529275
-2.4403925,-9.974144,0.42406118,-0.014966081,-0.020520777,-0.106064446
-2.1050148,-9.777796,0.22779971,0.023383465,0.005045603,-0.15187076
-1.1994874,-9.5670805,-0.035477325,-0.0032480666,-0.011998556,0.055855654
-1.4582152,-9.514401,0.38097572,-0.14173226,-0.22292067,0.12935886
-1.9085898,-9.514401,0.55330044,0.052145753,0.11050686,0.01857147
-1.5588388,-9.89752,0.83093536,0.16506375,0.31077644,0.0047230655
-0.7299704,-10.812213,0.5915925,-0.12468789,-0.025846753,0.11337997
-0.59103084,-10.141756,-0.33705425,-0.12362256,-0.3177289,0.081422076
-0.8689233,-9.394676,0.2325775,0.08410388,-0.5968279,0.027093662
-1.6019771,-8.839154,0.81656975,-0.045858204,-0.8045542,0.053725272
-3.9017444,-7.5892315,0.7495527,-0.19073398,-0.4530172,0.11657584
-3.4561696,-9.231851,-0.31312525,-0.15558022,0.13500834,-0.013386289
0.48216957,-10.840947,-0.91626734,-0.43148342,-0.14196014,-0.16891474
-0.37066358,-10.673333,1.4532132,-0.8075214,-0.43384227,-0.31911686
-2.1050725,-9.954987,1.481933,-0.15131901,-0.4689959,-0.058127295
-1.0701835,-9.825684,0.23735523,0.3557465,-0.10574101,-0.018712524
-1.6355464,-9.495244,-0.7200125,0.47825184,0.63568246,0.014310668
-1.8846918,-10.247113,-0.46152484,0.31100553,0.7880152,-0.13908724
-1.6307641,-9.820895,-0.6194916,-0.07675034,0.12755187,-0.19128515
-1.7265921,-9.89273,-0.4280196,-0.41550407,-1.0602169,-0.3468136
0.788769,-9.921463,0.17033315,-0.35265347,-1.7537034,-0.49168944
1.7278343,-9.088181,1.0989773,-0.09166385,-1.5001706,-0.09967242
-0.22696842,-8.623651,-0.021142736,0.09795312,-0.7150714,0.41378462
-1.1372956,-10.467407,-0.6673664,0.37918276,0.40239015,0.6513384
-0.8354562,-10.716434,0.19904897,0.45055547,1.193881,0.88569635
-1.6595423,-9.634125,0.61550206,0.40687972,1.5198517,1.1275113
-4.0359683,-9.5527115,0.352225,0.11712809,0.8466052,1.0007449
-4.3713546,-10.17049,-0.44239044,-0.18860248,-0.23144142,0.2625173
1.4259592,-12.201017,0.28999358,-0.25464875,-0.6990921,0.19753624
0.1323384,-10.462617,0.69208616,-0.38461083,-1.2274626,0.944286
-4.318665,-5.9801335,0.7112322,-0.34732658,-1.4415805,1.2606694
-4.9702687,-6.166904,-0.8923578,-0.042661153,0.23407897,1.0177892
-2.5750241,-8.987609,-1.6535636,0.102217756,1.8958919,0.7024726
-1.1424749,-11.908885,-1.7253693,0.32485798,1.9022835,0.2774325
-2.8720994,-11.817895,-0.74885887,0.69024354,0.7741696,0.007920885
-4.338209,-9.26537,2.5061836,0.60715306,-0.41999063,0.100598864
-4.1034527,-6.904403,4.162424,-0.01602592,-0.46579686,0.25399685
-4.0411787,-10.031607,1.7115632,-0.74466604,0.24792989,0.29660746
-1.3150126,-10.165698,-3.194943,-0.7989943,0.635686,0.23695274
-0.48615095,-8.70027,-3.3289776,-0.14598764,0.20531963,0.173037
-1.9810078,-9.241424,-0.76802564,0.365339,0.17123133,0.29128128
-3.7489614,-9.16001,0.7446101,0.3493602,0.05937879,0.43189612
-3.5285788,-9.758634,2.0705593,0.08730551,-0.3432907,0.56398886
-2.4218287,-12.378204,-0.9164271,-0.21629447,-0.36246526,0.79089004
-4.601824,-12.047765,-2.318972,0.22472478,-0.44662094,0.74614906
-5.152819,-10.816998,0.16060361,0.8979715,-0.28576604,0.24227943
-4.4820666,-11.003767,0.28505802,1.1855927,0.104120575,0.15492786
-4.0508723,-11.6694355,1.5439917,1.068414,-0.30920154,0.3093911
-3.0207815,-11.722115,2.099261,0.627395,-0.8152016,0.526705
-1.3342996,-9.916669,0.25632733,0.125656,-1.0325152,0.6385577
-2.1056895,-9.294102,0.17494795,0.214073,-0.54782015,0.39141658
-4.094037,-7.7424726,-0.3324595,0.86921024,-0.3198536,0.574642
-4.2090364,-7.4311886,1.7785302,0.94484407,-0.50094825,0.7418884
-4.8366914,-8.729002,3.7842097,0.4111472,-0.50627446,0.744019
-3.7586884,-11.798738,3.1284103,0.03510932,-0.65860695,0.9208528
-3.7299528,-9.222266,0.90731704,0.5517623,-0.55314577,1.4162004
-4.1180487,-7.3210425,0.016963035,0.34403604,-0.22078337,1.3735899
-4.8559,-6.2914114,-0.70106506,0.11713504,0.09666529,0.8366971
-5.277534,-6.051963,0.76370233,0.5027606,-0.62558323,0.63003606
-5.598554,-6.7319975,2.9847891,0.742445,-1.3883117,0.6513414
-4.7696924,-7.6658483,3.2863564,0.7190094,-1.1443663,0.6257751
-4.7457476,-6.9618683,2.577902,0.62420106,-0.6905639,0.7237794
-5.0955143,-5.8125134,2.2763283,0.5922433,-0.62558264,0.6556026
-4.8224287,-5.836458,3.2432654,0.47826025,-0.4988162,0.35732883
-4.7409897,-5.879559,3.5687664,0.15442026,0.017836785,0.08568669
-4.688298,-5.2617807,2.9799826,-0.11935232,0.4567255,0.066512
-4.5349917,-5.9705496,2.0704818,-0.10869953,0.2628477,0.1645163
-5.0045376,-8.149534,2.6592588,0.12565857,-0.45407453,0.18156056
-5.3303485,-9.571861,3.822456,0.16613874,-0.6852366,-0.04960157
-6.3269234,-8.417718,3.9852047,-0.18539809,-0.09401517,-0.32443953
-6.365264,-8.475184,2.769346,-0.42721274,0.67190945,-0.504469
-5.704093,-7.3545637,1.5199797,-0.19072412,1.1768445,-0.5513405
-5.1435375,-6.329722,3.1427124,-0.07141445,1.0756446,-0.6408226
-4.8848248,-6.310566,3.750637,-0.30257648,0.817851,-0.5438835
-4.3721805,-6.1908417,3.3820477,-0.43253848,0.4418131,-0.2562624
-3.8307896,-6.9379225,2.0943863,-0.3952541,0.23621738,0.026032511
-4.544685,-7.1103253,0.620039,-0.27381393,0.24260911,0.12616733
-5.4166894,-7.775993,-0.1889388,-0.11189374,0.24260925,-0.14760534
-5.9485207,-8.484762,0.7301298,0.11820332,0.12649566,-0.3840938
-6.082685,-9.356355,3.2144923,0.33445197,-0.014118989,-0.31378633
-5.2442408,-8.293202,3.554354,0.3696058,0.026361167,-0.19554205
-4.401006,-8.460816,2.5730503,0.27373224,-0.053533453,-0.10819037
-4.2559347,-9.342,2.3963268,0.1576026,-0.30175433,-0.096478544
-4.4523573,-8.666755,2.4681337,-0.027753474,-0.38910615,-0.16785127
-4.624824,-8.144756,1.8793579,-0.06610317,-0.29855892,-0.14015448
-4.5241933,-7.9005184,1.8841493,0.15760198,-0.031177998,-0.13908929
-3.9588199,-7.70417,2.9803383,0.20873444,0.14565556,-0.036824077
-4.4762506,-7.560501,2.9037538,0.0574668,0.12008903,0.11018222
-5.6069517,-7.0241356,2.401141,0.005268689,0.20211412,0.09633372
-5.880033,-7.598813,1.6448259,0.06066219,0.3310108,-0.113523275
-5.5733824,-7.699382,1.6735516,0.21619047,0.31503168,-0.29355288
-4.437859,-8.676334,2.870264,0.28756294,0.25111565,-0.3042056
-4.145582,-9.380314,2.2240462,0.22790797,0.2990523,-0.07091296
-4.4378276,-9.1169195,2.243198,0.28330147,0.21702681,0.014308059
-4.921721,-8.264482,3.004309,0.22577704,0.29159507,-0.066652045
-4.9935727,-8.307583,2.9468715,0.007397807,0.31396538,-0.09967528
-4.6102633,-8.341106,3.004318,-0.102324545,0.066824056,-0.04641218
-4.519216,-7.8861527,2.9229467,-0.13960896,-0.14622885,0.008981449
-4.821044,-8.441674,1.7358166,-0.13002178,-0.0716606,-0.04960812
-4.78749,-8.79127,1.108746,0.036159117,0.109434,-0.08263136
-4.729981,-8.020245,2.2575903,0.18742634,0.22022122,-0.05493458
-4.8114147,-8.044189,2.9038174,0.12883665,0.26496208,-0.06132624
-4.6149616,-8.317161,2.8272326,0.007396399,0.078540765,-0.012324189
-4.567034,-8.302795,2.5017323,-0.041605923,-0.07911844,0.027090488
-4.806577,-8.360263,2.0278406,-0.005387166,0.030603506,-0.008063281
-4.7969794,-8.178283,2.2528262,0.008461059,0.12541176,-0.022977045
-4.8352933,-8.087292,2.3102727,-0.032019157,0.06682207,-0.015520272
-4.7059155,-8.173493,2.4395218,-0.046933047,-0.049291853,-0.008063501
-4.66278,-8.211804,2.5927048,-0.0629122,-0.097228914,0.02389433
-4.940652,-8.350685,2.3294337,-0.065042935,-0.09829438,0.046264794
-5.074789,-8.374631,2.075736,-0.002192582,-0.020530336,0.014306814
-4.744183,-8.092081,2.262427,0.014851433,0.054037914,-0.020846957
-4.5668936,-8.053769,2.334234,0.0031333328,0.011427171,-0.021912294
-4.6483283,-8.159127,2.4682698,0.0073941858,-0.036509883,-0.01978184
-4.7058067,-8.211805,2.4730613,-0.008584969,-0.041836403,0.010045466
-4.720165,-8.298008,2.2337244,0.005263257,-0.022661857,0.03561172
-4.883049,-8.345897,2.195434,0.032959905,0.009295847,0.035611644
-4.7249246,-8.144761,2.2911751,0.056395505,0.07640725,0.024958935
-4.552427,-8.077715,2.090133,0.06598267,0.14245339,0.034546237
-4.854255,-8.24533,1.9082377,0.071308784,0.26389325,0.023893526
-4.8159103,-8.561402,2.4778755,-0.02882618,0.47907627,-0.012325507
-4.916509,-8.221385,2.47788,-0.103394836,0.6431266,-0.021912953
-4.950032,-7.977147,2.5927684,-0.05652344,0.5579053,-0.024043553
-4.672128,-7.9196796,2.8895566,0.019110074,0.19038926,0.049459558
-4.710442,-7.9005237,3.009232,-0.03521857,-0.17819212,0.10485319
-5.328488,-8.336321,1.8699704,-0.05332825,-0.4157461,0.09633101
-5.817172,-9.164814,0.15150216,0.13628846,-0.32413363,-0.024043847
-5.0361953,-8.934943,1.9561424,0.22470513,0.34911275,-0.1998124
-4.1929336,-7.852634,3.2150838,-0.03415411,1.099058,-0.29355568
-4.2839503,-7.6754427,2.138051,-0.13641961,1.2109106,-0.28396836
-4.513911,-7.718543,1.9322219,-0.052263994,0.52275,-0.120983124
-4.806157,-8.154341,2.4348438,-0.059721038,-0.31135145,0.08248214
-5.237823,-8.441674,1.7837001,-0.13002247,-0.620272,0.09633274
-5.6115294,-8.575766,1.5156393,-0.08954253,-0.53611624,0.013242154
-5.065329,-8.197436,1.6879671,-0.029887853,-0.16753514,-0.0794358
-4.3274827,-8.039401,2.224094,0.0073962905,7.7641825E-4,-0.05919582
-4.2412353,-8.168704,2.4347165,0.0031351573,-0.12599002,-0.010193729
-4.677226,-8.278851,2.2576053,-0.017104927,-0.21866803,0.042004157
-4.9167786,-8.37463,2.1379364,-0.030953432,-0.18138388,0.073962025
-4.983849,-8.288428,1.8459414,-0.032018777,-0.051421806,0.052656732
-4.8544807,-8.2261715,1.7741408,-6.0949358E-5,0.07534447,0.023894588
-4.844892,-7.9100986,2.099647,0.04894109,0.14991283,0.019633504
-4.9263363,-7.6754394,2.439514,0.059593648,0.15950014,0.012176632
-4.9407034,-7.3976784,2.5687604,0.014852502,0.14032532,0.013241867
-4.916742,-7.546137,2.080505,-0.057585496,0.17121789,-0.009128696
-4.7250886,-8.594923,1.448645,-0.049063466,0.13925989,-0.010193988
-4.9406853,-8.815216,1.5778913,0.051071227,0.18400088,-0.024042444
-5.0604587,-7.5940266,2.4921782,0.01911324,0.28520083,-0.10500251
-5.2568903,-6.6936984,2.798537,-0.15559004,0.27135235,-0.17211413
-5.285631,-6.411149,2.4443135,-0.2695733,0.25111225,-0.22111627
-5.070023,-6.0711317,2.0230737,-0.37609977,0.2830701,-0.2477479
-4.1980233,-7.009772,1.1805931,-0.44853777,0.29585317,-0.22857317
-4.0446997,-7.646706,0.61574876,-0.34733778,0.32674572,-0.054935258
-4.2794604,-8.671548,0.7832897,-0.12150202,0.44498992,-0.027238436
-5.1466565,-7.6706505,2.0996702,-0.071434714,0.6654993,-0.25520486
-5.750339,-7.0001936,2.1666877,-0.28235695,0.97229517,-0.5715882
-4.9502068,-8.820006,0.18972781,-0.41231918,0.887074,-0.5641313
-4.796883,-9.749067,0.07484564,-0.24720342,0.27880847,-0.15613542
-5.6257496,-7.9244666,1.2236872,-0.09913188,0.04658095,-0.09221966
-5.865302,-6.875681,2.0901058,-0.100197226,0.37148625,-0.7462915
-5.007676,-6.913993,1.7981105,-0.26531315,0.7826778,-1.7231382
-2.7558188,-8.384209,0.77851707,-0.27596584,1.2396759,-2.5061069
0.42552543,-10.793065,-0.58094144,-0.013911114,1.5326233,-2.372949
0.08056712,-12.138768,0.5296054,-0.06184805,0.2841343,-1.411016
-0.70038784,-12.08609,2.0566068,-0.5721094,-0.7747377,-0.8943633
-0.47998783,-10.567983,1.099242,-0.7169853,0.046580404,-0.5300432
-1.323228,-9.059455,-0.09267745,-0.4112547,1.2513934,-0.12843883
-3.1774058,-8.384209,-0.95430547,-0.025629407,1.9619242,-0.12950413
-4.811189,-8.379419,-0.83463293,0.33549485,2.0695155,-0.747357
-3.503193,-9.303693,0.37165064,0.23429474,0.90411717,-1.6102204
-2.0275059,-9.753857,1.3385925,-0.3537308,-0.5734034,-1.6453742
-3.0144815,-8.987621,1.1423342,-0.71698576,-0.44237602,-1.3236645
-4.835121,0.40356606,-0.9925912,-0.5902195,0.8029169,-1.5196732
0.94783044,-12.6990795,-2.237166,-0.06078358,1.417574,-1.7465743
2.4858031,-21.520376,-1.8159229,0.35573438,1.1267569,-0.7430962
-8.09446E-4,-13.594619,-0.21233222,0.30353642,0.15949756,0.5235022
-1.8310312,-3.135489,0.084453136,0.05000359,-0.7001702,0.9506728
-2.5161629,-4.4764037,0.5152698,-0.13002601,-1.0112271,0.58635265
-2.722177,-10.486572,-0.6383549,-0.62537366,-0.90470093,0.057981927
-3.162959,-13.829278,-1.7824061,-0.82351273,-1.0218799,-0.5343046
-1.3470982,-15.289916,-1.2079844,-0.36544952,-1.1071011,-1.1372437
0.2723241,-12.473997,0.28072217,0.16718219,-1.1102971,-0.8261869
1.2921493,-10.333319,1.9654846,0.28969648,-0.5936354,0.069703005
0.041645467,-10.117814,0.6969719,0.004205943,0.48441145,0.61192214
-1.1801112,-8.767323,-1.1890422,-0.15558347,0.5515231,0.3583895
-1.5825776,-7.857416,-0.91619503,0.040425103,-0.13983278,0.061181013
-2.210229,-8.815211,-0.9879998,0.19914947,-0.2005527,-0.15187165
-2.2533574,-10.826582,-1.0071495,0.118189536,-0.1366368,-0.3894254
-1.5107334,-9.796951,-0.7295154,0.087297,-0.30388308,-0.4842338
-1.4484558,-7.584444,0.3858142,0.32911193,-0.2910998,-0.4533411
-1.7646811,-7.474297,-0.25083673,0.13949512,-0.062068045,-0.5534759
-1.0699687,-8.331524,-1.504989,-0.24293438,-0.38058174,-0.9103391
0.19968411,-10.290217,-1.7969881,-0.29939324,-1.1198745,-1.185177
2.4563184,-13.23065,-0.27956453,-0.41976792,-1.8154914,-1.1500233
2.7821107,-12.967256,0.47196585,-0.41444153,-1.7228135,-0.8837074
2.0682178,-9.71554,1.2139225,-0.03201181,-0.9398447,-0.6749158
-0.23155251,-6.6458035,-1.2130036,0.45694426,0.064698905,-0.46079773
-0.28905436,-10.429096,-1.8879492,0.6327128,-0.19416003,-0.44907978
-0.24115042,-12.794852,1.5106993,0.29715493,-0.53610957,-0.25839755
0.19004732,-12.09566,2.0899038,-0.026685089,0.110505536,0.19007842
1.0141212,-13.31685,0.55811524,0.07238452,0.5493942,0.7365586
1.4501101,-13.671235,0.12729807,0.2044773,0.49932694,1.2361673
2.714972,-11.592817,0.70171565,-0.009640573,0.3661691,1.9190012
-0.059124753,-5.510815,-1.5816056,-0.62855864,0.29053545,2.5283322
-2.7565622,-2.417135,-3.4484725,-0.6551901,-0.34223095,1.8380413
-3.9831104,-4.500341,-0.36096787,0.0063386825,-0.80775106,0.39673975
-2.2678785,-10.783481,0.6586251,0.30461258,-0.16113596,-0.6376311
-1.4581782,-12.694283,0.017187327,-0.024553759,0.11583265,-0.28396356
-1.9516768,-10.414729,-0.1551409,-0.25038952,0.13394223,0.24973351
-0.9120001,-9.274952,-0.58595806,0.0074043483,0.22022869,0.11551033
-0.34664956,-9.3467865,-0.3609792,0.13523608,-0.040760785,0.0025924323
-0.77786285,-9.413833,-0.69127285,0.037231926,-0.11213335,-0.05493176
-1.4103053,-9.586236,-0.43278623,0.047884665,-0.08124061,-0.08902016
-1.6163336,-9.9023075,-0.14557856,0.04042792,-0.03543417,-0.05812748
-1.4199033,-10.060344,-0.26525164,-0.0011172575,-0.008802487,-0.0016684757
-1.0749466,-9.88794,-0.34663004,0.012731268,0.005046039,0.0100494595
-0.9024722,-9.533556,-0.23174834,0.025514532,0.027416673,0.012180024
-0.9216447,-9.476089,-0.19824278,0.012731469,0.031677827,0.0015274248
-1.0797611,-9.801739,-0.2221792,-0.004312646,0.013568445,-0.012320965
-1.2809981,-9.950197,-0.25090247,-0.012834654,0.014633808,-0.017647246
-1.2139297,-9.787372,-0.26526523,0.0020791362,0.032743387,-0.008059837
-1.0079169,-9.614968,-0.21261235,0.022319244,0.026351906,-0.0059292736
-1.0175071,-9.547923,-0.20304096,0.02977619,-0.015193271,-0.019777663
-1.1708323,-9.662858,-0.21261689,0.025515236,-0.032237384,-0.022973416
-1.2906195,-9.777795,-0.21261916,0.016993228,-0.0119972825,-0.018712327
-1.2954184,-9.792161,-0.16953993,0.010601747,0.016764931,-0.011255444
-1.2235584,-9.835262,-0.15996853,0.00847132,0.011438713,-0.004863827
-1.1373253,-9.816106,-0.1886918,0.027646165,-0.0034748758,-0.0016679998
-1.08463,-9.691591,-0.2413492,0.04149469,-0.011996885,0.0036583547
-1.1038027,-9.643702,-0.21741733,0.03510321,-0.022649419,0.005788918
-1.094228,-9.658068,-0.27486157,0.021254886,-0.0013440505,0.0025931643
-0.9792477,-9.686803,-0.26050335,0.01060235,0.021026582,4.6267395E-4
-0.96956146,-9.768216,-0.21739158,0.011666271,0.016764201,-0.010190451
-1.0749727,-9.796949,-0.26526153,0.008470552,0.0061116368,-0.012320952
-1.1947577,-9.74906,-0.22218165,-0.0075083287,0.012503289,4.6223716E-4
-1.2283015,-9.701171,-0.14080712,-0.016030364,0.030612841,0.010049635
-1.1276923,-9.634125,-0.13123508,-0.0053776577,0.031678174,-6.029742E-4
-1.0270833,-9.701171,-0.15995769,0.0074055768,0.015699293,-0.015516637
-1.0893741,-9.820895,-0.27484328,0.009536175,0.013568836,-0.018712403
-1.2283237,-9.739482,-0.33707374,-0.0011163879,0.0050468,-0.011255531
-1.1612527,-9.658069,-0.26048604,-0.0085731605,0.011438452,-6.0286943E-4
-1.0462703,-9.682014,-0.12166952,-0.0053772978,0.028482739,0.0025929478
-1.0750228,-9.796949,-0.08816332,0.0042101457,0.025287021,-0.0027333437
-1.2475107,-9.907097,-0.15996741,0.0020796903,0.010373401,-0.0048638447
-1.3289661,-9.792161,-0.38495013,-0.018160244,0.005047155,0.004723553
-1.1229513,-9.710748,-0.42803326,-0.030943336,0.016765125,0.022833059
-0.90735406,-9.7203245,-0.31793773,-0.025616946,0.024222042,0.024963612
-0.90735966,-9.70117,-0.23177639,-0.002181076,0.013569477,0.0057888953
-0.96965045,-9.715537,-0.20305702,0.012732685,-0.0013441416,-0.008059504
-1.0654795,-9.773005,-0.20784548,0.0031453855,0.0114390915,-0.008059478
-1.228385,-9.773005,-0.30358374,-0.019225076,0.01889601,-0.009124716
-1.2427639,-9.74427,-0.40889567,-0.028812377,0.016765554,-0.011255217
-1.0511227,-9.7203245,-0.4136841,-0.02774704,0.030614048,4.627084E-4
-0.9840517,-9.672436,-0.3658174,-0.032008026,0.040201493,0.011115369
-1.0559249,-9.567079,-0.25572187,-0.03413848,0.034875248,0.008984868
-1.099051,-9.638913,-0.19349469,-0.037334196,0.02102689,-6.024764E-4
-1.0894742,-9.816105,-0.19828315,-0.03200781,0.021026962,-0.0069940314
-1.1805121,-9.74427,-0.15520328,-0.01496352,0.017831244,-0.009124532
-1.2475941,-9.667646,-0.1408444,0.0010155054,0.0029176238,-0.0059287157
-1.2236438,-9.70117,-0.11212504,0.014864002,-0.0024086225,0.0015281554
-1.1709464,-9.70117,-0.17435548,0.028712502,-0.0013432882,0.0036587087
-1.1709518,-9.643702,-0.20786491,0.042561,-0.0151916435,-0.0080591645
-1.1853311,-9.667646,-0.26530853,0.04256107,-0.027974732,-0.01764651
-1.2859511,-9.753848,-0.33232582,0.021255873,-0.037562035,-0.0048633213
-1.2188804,-9.801738,-0.33232743,0.007407518,-0.017321955,0.018572502
-0.9601626,-9.744269,-0.16478992,0.028712861,0.01783181,0.035616744
-0.9170477,-9.734691,-0.06426806,0.044691883,0.032745574,0.028159926
-1.0607884,-9.73948,-0.045122363,0.038300376,0.029549852,0.010050473
-1.1614084,-9.715536,-0.21744993,0.026582548,0.041267823,-6.021365E-4
-1.1278758,-9.734691,-0.37541702,0.022321567,0.042333156,-0.004863164
-1.194958,-9.78737,-0.45200795,0.027647957,0.032745857,-0.004863138
-1.3243252,-9.768214,-0.4567964,0.01912592,0.023158554,0.00472426
-1.3578688,-9.715536,-0.4998795,-0.009636124,-2.7717114E-4,0.013246394
-1.2285128,-9.734691,-0.39457083,-0.019223422,-0.032235004,0.01005063
-1.0656185,-9.758636,-0.15523085,-4.8607704E-5,-0.06206231,-0.0016672426
-0.99375653,-9.73948,-0.03077484,0.02551779,-0.08017173,-0.015515642
-1.0129267,-9.69159,-0.04513695,0.028713653,-0.072714806,-0.017646143
-1.1087557,-9.749058,-0.13130154,0.01273477,-0.03649577,-0.0037976913
-1.1758378,-9.729902,-0.27012128,-4.832016E-5,0.0029190462,0.007920234
-1.1566787,-9.672435,-0.27012292,-0.0011135117,0.021028597,0.017507631
-1.0752342,-9.667645,-0.22704303,-0.0075050206,0.023159195,0.021768712
-1.0417016,-9.715536,-0.19832367,-0.0043091583,0.003984523,0.006855049
-1.1224285,-9.777799,-0.1550315,0.0063341316,-0.021591045,-0.012323097
-1.2134519,-9.729908,-0.19811039,0.011660334,-0.034374323,-0.014453666
-1.2469811,-9.672441,-0.20768148,0.011660219,-0.017330218,4.5998103E-4
-1.1990607,-9.691597,-0.18853155,0.0031379964,0.008235993,0.013243102
-1.1655135,-9.782588,-0.15502113,0.0010073542,0.015692724,0.01643885
-1.1367576,-9.758643,-0.092789724,0.007398821,0.011431556,0.012177755
-1.0936282,-9.6724415,-0.12150812,0.009529232,0.012496706,0.012177712
-1.0888281,-9.696386,-0.14065287,0.0010070096,0.0018439568,0.011112408
-1.1463132,-9.749064,-0.1741581,-0.0064499495,0.0018438434,0.005786048
-1.1606779,-9.701176,-0.16458184,0.0010067796,0.014626891,0.0025902153
-1.218163,-9.67723,-0.13107143,0.0042024553,0.019953094,0.003655437
-1.2516923,-9.729909,-0.155003,0.0020718137,0.01675719,0.0057859225
-1.2181453,-9.782588,-0.26988438,0.0020716987,0.01782234,0.013242725
-1.093566,-9.67723,-0.26030812,-0.006450524,0.001843275,0.011112156
-1.069601,-9.658073,-0.18371622,-0.01603801,-0.009874737,-0.001671048
-1.146251,-9.792167,-0.16456631,-0.011777072,-0.0034832698,-0.0069974074
-1.1606157,-9.801744,-0.21243203,-0.002189815,0.003973461,-0.0016711318
-1.1749803,-9.68202,-0.17892161,0.004201651,-0.0056140246,4.5935332E-4
-1.1989272,-9.648498,-0.20285319,-0.0032553081,-0.012005719,4.5931188E-4
-1.1989183,-9.677231,-0.23635843,-0.007516477,-0.008810042,0.004720324
-1.1989094,-9.753855,-0.15497968,-0.0011250112,-0.004549102,0.0036550188
-1.2707682,-9.777801,-0.15019026,0.0052664555,0.007168683,0.005785504
-1.2707592,-9.734698,-0.23156382,0.004201077,7.769889E-4,0.005785462
-1.1605535,-9.72991,-0.27942955,0.0031356984,-0.02159366,0.003654893
-1.1365886,-9.710754,-0.24591914,0.004200847,-0.037572723,-6.0620264E-4
-1.1557446,-9.68202,-0.18847455,0.0052659954,-0.027985469,-6.0624455E-4
-1.1461532,-9.753855,-0.24591395,-0.0011257004,-0.009876101,4.5897707E-4
-1.1748915,-9.749065,-0.2506982,-0.0043216054,-0.007745688,-0.0016715919
-1.1844649,-9.7251215,-0.21718778,-0.0085827755,-0.013072119,0.0015241568
-1.1940384,-9.6868105,-0.19325104,-0.016039735,-0.003484861,0.007915696
-1.1988206,-9.696388,-0.15495378,-0.013909322,-0.0077460287,0.0068503907
-1.1844382,-9.729911,-0.13101703,-0.0021915385,-0.009876669,4.58768E-4
-1.1700557,-9.792168,-0.16452226,0.009526245,-0.009876783,-6.0653745E-4
-1.2227497,-9.7251215,-0.20281434,0.0063303406,-0.022660058,-0.0027371063
-1.2131586,-9.662865,-0.26504058,0.0010039074,-0.014138064,0.00578496
-1.1652379,-9.720332,-0.16930133,0.0063301106,7.755114E-4,0.0121765
-1.1700201,-9.796956,-0.20280656,0.009525785,-0.0077467104,0.01004593
-1.1460555,-9.753856,-0.2650328,0.010590934,-0.007746824,0.012176416
-1.0502231,-9.624554,-0.20280138,0.01059082,0.003970961,0.008980583
-1.0837524,-9.624554,-0.14056997,0.009525441,0.007166638,4.5843318E-4
-1.2322699,-9.715546,-0.23630401,0.0073947995,0.0018402068,-0.0069984533
-1.3376669,-9.763434,-0.23630144,-0.0021926872,0.0018400932,-0.005933231
-1.2370434,-9.7347,-0.21236467,-0.0064538564,0.008231561,0.0015235714
-1.1555846,-9.705967,-0.23150942,-0.0011276534,-0.0034864517,0.0036540567
-1.1412021,-9.73949,-0.18842535,0.004198549,-0.008812883,0.0047192783
-1.1124461,-9.777802,-0.14055443,0.0063289613,-0.003486679,0.0047192364
-1.1459755,-9.73949,-0.13576502,0.011655164,0.0018395251,0.003653931
-1.2226253,-9.682022,-0.15969658,0.007393995,-2.9111584E-4,4.5809837E-4
-1.2178253,-9.720333,-0.26021746,0.0041980897,-0.0034870198,-0.0016724701
-1.1842782,-9.753857,-0.25542805,0.006328502,-0.006682924,-6.072485E-4
-1.1939073,-9.672444,-0.17885232,0.008459631,-0.012008646,4.5823434E-4
-1.1795259,-9.682022,-0.14534223,0.010590058,-0.005617164,0.0036539882
-1.1459799,-9.7347,-0.13097946,0.00845943,0.0029048447,0.0047192154
-1.141181,-9.777802,-0.15012452,0.00845933,0.008231063,0.005784442
-1.2130408,-9.758646,-0.20277742,0.0063287024,-0.005617462,0.0036538783
-1.2082417,-9.667655,-0.2123488,-0.0011282432,-0.010943879,0.0025885785
-1.1076194,-9.658076,-0.2075597,0.0020674467,0.0039697103,0.0047190688
-1.1124027,-9.667655,-0.15011546,0.009524191,0.0039696107,-6.0728576E-4
-1.2273831,-9.725122,-0.09745803,0.00952409,-0.014139969,-0.008064167
-1.304034,-9.763435,-0.12617676,0.0010018816,-0.0024221695,4.5790465E-4
-1.2369499,-9.705968,-0.21233745,-0.010716119,0.018883001,0.01324103
-1.1554922,-9.710757,-0.22669569,-0.0075204275,0.015687112,0.007914676
-1.1267374,-9.74428,-0.1788251,-6.3683954E-5,-0.004552995,-0.0027379957
-1.112356,-9.725123,-0.15010184,-6.378454E-5,-0.015205731,-0.0016727691
-1.0931835,-9.7011795,-0.09744441,0.0020666416,-0.009879512,0.0015229847
-1.2033727,-9.672445,-0.087868474,-0.0032597766,-0.002422767,0.0036534755
-1.2943971,-9.715547,-0.15009503,-0.008586195,0.0029034512,4.5764807E-4
-1.2608513,-9.79217,-0.16924009,-0.0032599778,0.0018380883,-6.0765224E-4
-1.2320963,-9.768225,-0.13094316,0.0041967663,-0.010945174,0.004718629
-1.212924,-9.686812,-0.14530139,0.0063271928,-0.0088147465,0.015371229
-1.1602132,-9.667656,-0.15487279,-0.0011297526,-2.927375E-4,0.016436454
-1.1697879,-9.725123,-0.18837833,-0.009651962,-2.9283715E-4,0.014305891
-1.1889447,-9.782591,-0.1931629,-0.0032604812,-0.0045539904,0.012175327
-1.1745634,-9.686813,-0.14050548,0.0063267904,-0.012010935,0.006848973
-1.1745557,-9.658078,-0.10220856,0.00632669,-0.008815244,0.0036531459
-1.2128773,-9.729914,-0.21230343,-0.004326046,0.0029025553,0.0068488996
-1.2080781,-9.782592,-0.2649563,-0.00219562,-0.0034891255,0.00897939
-1.2176528,-9.734702,-0.1835779,0.005261124,-0.01094607,0.00791409
-1.2224362,-9.677235,-0.16921513,0.0031304965,-0.015207223,0.005783526
-1.1984725,-9.648501,-0.22186801,-6.539479E-5,-0.015207323,0.0036529624
-1.1697177,-9.682024,-0.25537357,-0.010718131,-0.0024242601,0.006848716
-1.1697099,-9.729914,-0.17878199,-0.010718232,-2.9383274E-4,0.00684868
-1.1936581,-9.773015,-0.09740357,-0.0043267505,-0.006685513,0.004718116
-1.2271885,-9.796959,-0.10697497,9.994662E-4,-0.0024245586,0.00791387
-1.2080159,-9.720335,-0.17398834,0.004195156,-0.0013593948,0.012174888
-1.203217,-9.638924,-0.2074939,9.992648E-4,-2.9423088E-4,0.012174851
-1.2367474,-9.653291,-0.19791797,-0.0011313626,7.7093346E-4,0.00791376
-1.2702779,-9.739492,-0.1979157,-0.0011314634,-0.0034902203,0.004717933
-1.27027,-9.758649,-0.25056857,-6.6300505E-5,7.7073416E-4,0.007913687
-1.17923,-9.7155485,-0.24577948,0.0020641256,-2.9462902E-4,0.00791365
-1.1792222,-9.677236,-0.16440107,0.0063250796,-0.014143154,0.0036525596
-1.2750379,-9.686814,-0.11653048,0.013781823,-0.021600097,0.0015219956
-1.3325242,-9.7155485,-0.19311753,0.014846986,-0.015208618,0.0015219589
-1.3277253,-9.782593,-0.17396793,0.012716358,-0.0045560813,0.007913503
-1.3229263,-9.758649,-0.22662081,-0.0021974314,7.701372E-4,0.015370312
-1.1935568,-9.677236,-0.2792737,-0.013915432,-0.0034910166,0.015370275
-1.1216815,-9.696392,-0.18353477,-0.005393423,-0.014143751,0.007913393
-1.2270794,-9.701181,-0.1069432,0.012715955,-0.021600697,0.014304939
-1.294148,-9.74907,-0.1452356,0.018042173,-0.0066871056,0.023892272
-1.3564255,-9.725125,-0.19788846,0.0073894374,0.0029001664,0.024957499
-1.3568659,-9.6868105,-0.15493533,0.0010035484,-2.899936E-4,0.01856799
-1.3137466,-9.696388,-0.12142783,0.0041993535,7.7528413E-4,0.018567996
-1.2562536,-9.720332,-0.1740833,-0.0011269498,0.008232143,0.019633265
-1.1316843,-9.768223,-0.21237828,-0.0021921988,0.014623738,0.021763796
-1.1077294,-9.763433,-0.19323128,0.0052646603,0.017819542,0.030285912
-1.2083452,-9.6868105,-0.111855455,0.024439419,0.016754296,0.035612237
-1.3856196,-9.677232,-0.107068956,0.040418383,0.014623781,0.037742767
-1.4862355,-9.6868105,-0.18365858,0.04361419,0.01568906,0.045199618
-1.41916,-9.7778015,-0.20280625,0.043614205,0.030602764,0.052656464
-1.2897995,-9.763433,-0.17408559,0.042548954,0.047646996,0.06970068
-1.1987684,-9.682021,-0.20280689,0.044679496,0.04658174,0.0899407
-1.0981549,-9.729911,-0.17408623,0.056397412,0.06469124,0.10591966
-1.0406619,-9.82569,-0.12143139,0.08409427,0.0955839,0.11870282
-1.1604422,-9.782589,-0.0879239,0.114986934,0.11582391,0.13042074
-1.2658492,-9.638921,-0.15015304,0.13522696,0.14139025,0.1432039
-1.2371033,-9.471306,-0.21238217,0.13203119,0.16163027,0.13787758
-1.3425102,-9.528773,-0.284185,0.111791186,0.1552387,0.110180736
-1.5533229,-9.677232,-0.34641412,0.09048593,0.10943239,0.0792881
-1.6635209,-9.758645,-0.3224803,0.09155121,0.04977765,0.06757021
-1.5629073,-9.806535,-0.15015465,0.105399646,0.024211336,0.08567969
-1.4191734,-9.749066,-0.035271004,0.09794282,0.05084294,0.10165865
-1.3329334,-9.648499,0.098759964,0.084094405,0.081735596,0.08035339
-1.5054169,-9.605397,0.07003865,0.068115465,0.08173561,0.048395485
-1.8168441,-9.605397,-0.0831403,0.034027047,0.06682193,0.032416537
-1.9414157,-9.710755,-0.11664845,0.002069157,0.051908262,0.038808126
-1.8743404,-9.739489,-0.020912126,-6.135565E-5,0.06469144,0.046264976
-1.4527184,-9.701178,-0.001765117,0.037222877,0.06895251,0.011111283
-1.2323254,-9.629342,0.2854445,0.083029225,0.0636262,0.004719707
-1.601247,-9.485673,0.30937836,0.06278923,0.0902578,0.0143070845
-1.9989153,-9.509618,0.09397054,0.0031344923,0.07214834,0.0025891908
-2.123487,-9.6868105,0.08439654,-0.011779183,0.022080965,-0.027238185
-1.8743471,-9.835269,0.16577238,0.03615769,0.028472561,-0.06771819
-1.4862633,-9.864002,0.23757452,0.076637715,0.07108312,-0.10926347
-1.4623085,-9.696388,0.19449276,0.0659851,7.7573885E-4,-0.11352452
-1.5437593,-9.318059,0.30458957,0.09368196,7.7575305E-4,-0.09861082
-1.8024839,-9.318059,0.6013728,0.06918092,-0.009876868,-0.057065535
-1.7737379,-9.897526,0.4529807,-0.082086496,-0.103620045,-0.05386974
-1.7976949,-9.806535,0.055673286,0.0031346073,0.017820012,-0.016585512
-1.7258285,-9.643709,0.13704911,0.124574654,0.13073796,0.026025034
-1.5054357,-9.658075,0.031738475,0.18635997,0.2937233,0.04946084
-1.5054368,-9.327637,0.40511107,0.28010318,0.40664122,0.11550718
-1.3042086,-9.342003,1.0848408,0.12137891,0.18613172,0.12829036
-0.53283095,-9.54314,0.38596308,-0.24081066,-0.10894627,0.01217663
-0.70052314,-9.54793,-0.32248837,-0.42190543,-0.2889758,-0.06665287
-2.4780493,-8.997197,-0.54746985,-0.060781106,-0.0024198953,0.07502718
-3.5033612,-9.878369,0.0987522,0.28223374,0.39598867,0.06543982
-2.1187134,-10.678129,0.8024162,0.13522743,0.42048973,-0.035760205
-1.0598656,-9.758645,0.62530303,0.0042000148,0.3139634,0.018568236
-1.6779279,-9.059454,-0.049640574,0.11924849,0.30650657,0.07928827
-2.2289138,-9.2079115,-0.2889825,-0.023496808,0.030603345,0.16450936
-1.2227685,-9.385105,0.37638682,-0.31644425,-0.22292936,0.078223005
-1.5294049,-10.908,0.60615444,-0.43894956,-0.2644746,-0.036825445
-1.8408321,-10.333323,-0.08314969,-0.40379584,-0.29323673,0.063309334
-0.2741199,-9.54793,-0.968714,-0.31005263,-0.52866,-0.12843809
-0.5663825,-10.381212,-0.47088373,-0.03308411,-0.49670205,-0.6610699
-2.046856,-10.759541,0.4625482,0.3237792,-0.10468504,-0.6589393
-2.0756042,-10.0747175,0.515203,0.32271394,0.06469188,-0.19235389
-1.0263383,-9.102554,-0.087938145,0.060659125,-0.08977132,0.14853044
-0.20704904,-9.423416,-0.3895089,-0.21098305,-0.35715246,-0.02510751
-0.35557652,-9.7251215,-0.43737754,-0.25785464,-0.44343877,-0.15080859
-1.4671296,-9.763433,-0.27462557,-0.28342092,-0.22825554,0.15811783
-2.0468626,-10.199231,-0.33206788,-0.18435143,0.4279468,0.51604635
-2.2433014,-9.988516,-0.4086575,0.13309711,0.7571132,0.67690116
-1.3808919,-9.528773,0.19926983,0.41858774,0.46629632,0.7706443
-0.97843444,-9.753856,0.6013634,0.42604464,0.15417413,0.74720854
-2.0420759,-10.678129,-0.20761155,0.100073986,0.051908843,0.65559584
-3.2686172,-10.529671,-0.25069335,-0.3665114,-0.22186387,0.70779383
-3.2111244,-9.634131,0.09874508,-0.474103,-0.4104155,0.7876886
-2.3918347,-9.50004,-0.035286553,-0.04480181,-0.09935854,0.7152507
-1.8360598,-9.792168,0.53913295,0.44095838,0.17121843,0.8207118
-1.5150524,-8.829582,0.8742109,0.5709205,0.29052794,1.1466825
-2.4780793,-7.6945944,-0.49482343,0.52831,0.36083534,1.4417604
-4.8017983,-8.350685,-0.011353694,0.44841525,0.091323696,1.1296382
-4.322683,-9.21749,1.8267894,-0.21630916,-0.17392692,0.3860843
0.061238796,-12.157923,0.57263917,-0.83735776,-0.12599005,0.28275374
-1.0646877,-11.6119795,-1.2032759,-0.42083973,-0.09722791,0.92404234
-3.9154367,-8.709858,-0.4900382,0.3994132,-0.037573136,1.367192
-4.2460284,-7.0863943,-0.32728624,0.7669291,0.4758839,1.4417604
-5.1371875,-7.4072556,-0.4948257,0.8936955,0.6591092,1.1541393
-5.59235,-10.965467,1.4869225,0.6859691,0.23087332,0.70033705
-4.907213,-11.951997,1.3433172,0.41965327,0.19785015,0.52882963
-5.554023,-10.05556,-0.83469176,0.41539222,-0.0365078,0.4606528
-6.23437,-9.4665165,0.51998144,0.30993116,-0.33265105,0.3583875
-6.10501,-9.753855,1.7884916,0.2683859,-0.10894569,0.41910753
-4.638912,-10.462624,1.2044977,0.12457532,0.17441443,0.57570124
-4.241246,-9.6341305,1.4964943,-0.0554542,0.002907005,0.7749055
-4.653288,-8.159125,0.83112425,-0.25146267,-0.20162357,0.8164508
-4.3418627,-7.2875314,0.017362446,-0.25039738,-0.47859207,0.8015371
-4.8305635,-7.90531,0.29021156,-0.12469629,-0.8482385,0.7099244
-6.449981,-7.7999525,0.7497471,-6.04362E-5,-1.1156197,0.65453076
-5.9517,-8.532665,0.88377804,-0.021365691,-1.4202849,0.61511606
-5.5827813,-8.101658,0.8885646,0.010592228,-1.1837964,0.44147807
-5.673815,-8.436886,0.54391235,-0.10126043,-0.5702047,0.18688011
-5.6259036,-8.810427,-0.016147316,-0.1715678,-0.53824675,0.30512437
-5.6642346,-7.7520623,1.0848236,0.026571224,-1.0538343,0.5256339
-6.071485,-7.804741,4.2776403,0.016983867,-1.4256113,0.493676
-5.9082003,-8.221386,2.415675,-0.20140013,-1.4256161,0.49260893
-5.668638,-7.019352,1.3625728,0.09900534,-1.628014,0.5533291
-5.5105267,-5.7885847,0.69720393,0.23003271,-1.5193572,0.45745543
-5.0170336,-4.792477,0.4482895,0.02763261,-1.5300097,0.35092908
-4.719978,-3.432407,1.6785063,-0.062914826,-1.664233,0.2380111
-4.916413,-2.757161,3.4257007,0.1075273,-1.6418626,0.12828895
-4.767884,-4.524294,1.5109688,0.34081998,-1.5204226,0.19646579
-3.8048549,-5.9897213,1.0514338,0.7754475,-1.8272184,0.5437417
-4.1402345,-6.808637,2.860857,0.91819274,-1.9848776,0.7259018
-5.596748,-7.3785253,4.397431,0.761599,-1.739867,0.5661122
-6.3154206,-7.565295,4.9287705,0.5900915,-1.153972,0.31044897
-6.11898,-7.244434,5.1489654,0.41112718,-0.57872975,0.17729099
-5.678189,-6.3057947,5.177687,0.23961972,-0.0993612,0.11976674
-5.1176186,-5.994511,3.9666195,0.11604911,0.18825993,0.034545653
-4.5522575,-6.5883446,3.5310187,0.11924486,0.043384038,0.027088795
-4.949922,-6.521299,3.1624334,0.17889957,-0.14516763,0.067568794
-5.682968,-6.569188,3.5310204,0.36745116,-0.13984136,0.06863404
-5.9896007,-6.42073,5.0005784,0.512327,0.3384619,-0.033631265
-5.994389,-6.1046576,6.0297484,0.3855606,0.9424663,-0.16678923
-6.0950007,-6.195648,4.8617625,0.13202783,0.92435676,-0.26266292
-5.8650217,-7.752066,3.1289299,0.18102993,0.42474818,-0.40966934
-5.33799,-9.227071,3.0858493,0.53576267,0.1509754,-0.3255135
-5.1607137,-8.882265,4.373508,0.8276448,0.35657123,-0.02830502
-5.7260685,-6.5404544,4.986223,0.92351854,0.7624365,0.03774131
-6.502236,-5.0893946,5.9244437,0.8127311,0.71236914,-0.18383352
-5.3619337,-5.151651,5.6515946,0.37597296,0.10197312,-0.30314302
-4.422861,-7.957992,5.575006,0.0020654246,-0.2570207,-0.2935557
-4.2503757,-8.9541,3.5118825,-0.23655365,0.04018777,-0.08156826
-5.155905,-7.3785257,4.8474097,-0.07782942,0.07853722,0.16024654
-6.492639,-8.149551,7.475381,-0.3452106,-0.040772334,-0.02404406
-6.1860013,-8.446468,6.37441,-0.93536663,-0.30389246,-0.26053256
-5.4289927,-9.739492,3.1480865,-1.1505499,-0.6415811,-0.13163571
-4.858841,-11.420424,1.9992476,-0.722314,-1.0868613,0.25612023
-4.1066236,-8.178287,4.1581097,-0.2802297,-1.3148277,0.45425922
-3.6562505,-7.8430576,5.833502,-0.40273502,-1.5236194,0.2582507
-3.110054,-8.365056,5.6133084,-0.6882257,-1.9284196,0.04839378
-2.381793,-7.024142,5.685112,-0.93643206,-2.5814261,-0.17105052
-2.5015693,-6.617079,5.713834,-1.319927,-2.9904873,-0.41073483
-2.1709754,-7.22049,4.842631,-1.6235272,-3.196083,-0.5726549
-1.9841169,-6.2243824,5.584591,-1.1079396,-3.157734,-0.7217918
-2.242837,-6.4590425,7.618995,-0.09380882,-2.5984704,-1.049893
-3.1387835,-6.0471907,8.102467,0.6540061,-1.7526513,-1.1915731
-3.0285835,-5.175596,7.4514575,1.0822421,-1.1795396,-1.1681373
-2.836934,-4.0980763,7.0876594,1.4273875,-1.0985796,-1.167072
-2.7890196,-4.160333,7.3605094,1.7288569,-1.3563734,-1.3183395
-2.2332406,-6.550033,7.652508,2.1613538,-1.4618344,-1.5867859
-2.3146873,-7.3881044,7.3126435,2.5192823,-1.3052408,-1.530327
-2.1996965,-5.7646403,7.2887096,2.307295,-1.1124282,-1.336449
-2.5207024,-5.3911004,7.4035945,1.4817157,-1.0900576,-1.3492322
-1.9936703,-5.946622,6.4749503,0.92138696,-1.4128325,-1.230988
-0.6282453,-5.52998,7.303055,1.2793163,-2.0594468,-1.0498928
0.5312201,-6.8230042,8.0162945,1.7150091,-2.2820868,-1.0232612
0.77078044,-6.9523067,8.12639,1.7746638,-2.0946004,-0.844297
1.2498993,-6.080713,7.9732137,1.5328491,-1.8559815,-0.74522746
1.9925326,-5.779007,7.762593,1.3315141,-1.7068446,-0.6994211
2.7974515,-5.458146,7.3652864,1.2388362,-1.6439941,-0.6578759
3.2669878,-4.9313583,7.6285625,1.2356404,-1.4213539,-0.7100738
3.6215363,-4.572185,7.5759077,0.9054087,-1.1284065,-0.80594754
3.444265,-4.2321672,9.040678,0.48995584,-1.0655559,-0.8709286
3.2286634,-4.054975,9.773064,0.33229682,-0.5574253,-0.91034335
3.305324,-4.270479,9.5193615,0.5251095,0.13712648,-0.8954297
3.3724022,-4.160333,8.676882,0.7552064,0.4375308,-0.87945074
2.9124513,-3.997507,8.016298,0.83829695,0.31076437,-0.7931644
2.744762,-3.7724252,6.6376915,0.8201875,0.30117702,-0.6237875
3.319704,-3.9783516,6.704707,0.6635937,0.032730564,-0.48210746
3.8323612,-3.4802978,8.131184,0.2790335,-0.2144106,-0.48849908
3.9377685,-3.4132519,9.481071,-0.07463399,-0.057816874,-0.6919644
3.4874,-3.360573,9.806576,-0.08741718,0.386398,-0.8549497
3.099317,-3.5856552,9.404484,0.14161445,0.6122338,-0.8038171
3.0993185,-3.590444,7.9827943,0.7083346,0.6825412,-0.6397665
3.1041112,-3.3126833,7.9349265,1.1536149,0.47694534,-0.50873905
3.4203305,-2.6422265,8.121613,0.9970211,0.39492002,-0.45228013
3.9090319,-2.3548877,8.648167,0.5794377,0.40557262,-0.5332402
3.9186158,-2.6087036,9.38055,0.32057863,0.4790758,-0.6866381
3.3388858,-2.8816752,9.078981,0.3525365,0.7049116,-0.851754
2.7351995,-2.6709602,8.092894,0.4686502,0.8274169,-0.8783856
2.145887,-2.3596768,7.0062833,0.532566,0.67295367,-0.75694555
2.2177563,-2.1010718,7.183397,0.4739765,0.17973666,-0.5108697
2.8070722,-2.11065,7.6620803,0.23535743,-0.43918148,-0.32764438
2.960391,-2.1202278,8.88751,0.07769841,-0.79391426,-0.27544644
2.9028988,-1.7466877,9.653404,0.07663312,-0.4136152,-0.3478844
2.7639565,-1.5790734,8.748693,0.2108563,0.2841324,-0.45547602
2.481279,-1.68922,8.183847,0.32164368,0.5206209,-0.4586718
2.294425,-1.224689,8.600302,0.20872574,0.5419261,-0.36066756
2.4189968,-1.0427079,9.169935,-0.14494178,0.6228861,-0.30633914
2.5196133,-1.3492026,9.055052,-0.34414607,0.7240861,-0.24242336
2.4956594,-1.3827254,9.275248,-0.34840715,0.5515134,-0.118852794
2.7879224,-1.6221743,9.878387,-0.31112295,0.31076384,-0.04748014
2.9604063,-1.9621918,9.112495,-0.20566188,-0.0024236445,-0.06558963
2.5339937,-1.8185225,9.246527,0.11604768,-0.5339902,-0.026174886
2.131537,-1.0953867,10.960215,0.32803512,-0.3816575,-0.0048696236
2.2609,-0.91819465,10.136879,0.2779677,0.77202284,-0.09754756
2.4046369,-1.4210374,8.935385,0.3269698,1.4985325,-0.15933286
2.7543945,-1.8520454,8.834862,0.2907508,1.3707008,-0.10287389
2.5052552,-1.6221744,8.15992,0.14054863,0.732608,-0.110330746
1.7722071,-0.84636,8.423195,0.21618232,0.22021629,-0.1295055
2.1794586,-0.88467175,8.322672,0.3472097,0.5152942,-0.12737499
2.4621391,-1.1145428,10.38101,0.15333173,0.65484375,-0.23603186
2.342362,-1.3300468,10.342716,-0.37077793,0.991467,-0.44375825
1.5470288,-1.4928721,10.0938015,-0.52737164,1.177888,-0.5353709
0.81395304,-1.3156797,8.274797,-0.2280323,1.1011895,-0.44375813
0.588769,-1.3013128,8.19821,0.35466683,0.36828816,-0.2232486
0.8235376,-1.3204687,8.6385975,0.65613645,-0.27193525,-0.082633816
1.0870533,-0.8032591,10.821394,0.49208578,-0.49564058,-0.07837278
1.1253836,-0.8798827,10.629921,0.010586662,-0.13238573,-0.19874755
0.56960875,-0.8942496,10.31399,-0.1342892,0.100906946,-0.21579178
0.545654,-1.1145427,10.0507145,0.038283482,0.24045646,-0.033631716
0.91457546,-1.3108907,9.366198,0.22470458,0.13286483,0.12083148
1.2116292,-0.9948182,9.347052,0.31205618,-0.2730006,0.16450728
1.422442,-0.6404338,10.400154,0.19168139,-0.5158807,0.17622519
1.5470135,-0.42492977,11.05595,-0.083156615,-0.33904696,0.13254938
1.4128617,-0.7649473,10.304419,-0.06291662,0.06362264,0.049458813
1.3170395,-0.64522284,9.978914,0.2864898,0.30224165,0.016435638
1.4176552,-0.6787457,8.696043,0.5112604,0.3618964,0.0036524697
1.4847326,-0.56381017,8.619455,0.52404356,0.05510049,0.06437248
1.4703603,-0.40577397,9.696491,0.1629192,-0.20908487,0.07928617
1.5182731,-0.5207094,10.3857975,-0.40060523,-0.2634133,0.043067206
1.5997242,-0.79368126,10.692154,-0.6520074,-0.104689084,-0.011261241
1.5613959,-0.9517175,10.524614,-0.32497156,0.20317207,-0.10820023
1.2883002,-0.841571,9.658199,0.22896548,0.4673574,-0.14441921
1.1206102,-0.58775514,8.384901,0.5496098,0.37894052,-0.05493706
1.0152055,-0.21421488,8.70562,0.45693183,-0.16967021,0.05478508
0.9241744,-0.09927936,9.466726,0.018043248,-0.54890406,0.15491983
0.962505,-0.40098506,9.394924,-0.33668953,-0.57766616,0.22842301
1.10145,-0.5207095,9.753937,-0.35373375,-0.46474823,0.24866302
1.3410097,-0.8176262,9.505022,-0.25679478,-0.17180079,0.21563984
1.3074727,-1.08102,9.208239,-0.20885794,-0.14623448,0.17729035
1.2356062,-0.860727,8.940176,-0.31431904,-0.44024724,0.24759774
1.5518247,-0.8511491,9.34227,-0.487957,-0.8578306,0.37649465
1.9159552,-0.93735063,9.78266,-0.427237,-1.0559696,0.39993042
1.9207469,-0.7553695,10.237408,-0.027763199,-0.73745584,0.29873037
2.0596924,-0.97566247,9.634268,0.40366852,-0.241043,0.20818296
2.155517,-0.87988293,9.725218,0.53576124,-0.07273139,0.1836819
2.1123977,-0.7841034,9.600761,0.33868742,-0.09723247,0.16344188
1.9974104,-0.69790184,9.289618,0.15120101,-0.29963255,0.19113873
2.054906,-0.7074797,9.390141,0.10965572,-0.5499695,0.29553455
2.2992563,-0.7457916,9.911907,0.1533315,-0.6309296,0.3530588
2.6825514,-0.9852405,10.036364,0.232161,-0.35609153,0.29340404
2.8694081,-0.93735075,9.892759,0.31844732,-0.0077504,0.16770293
2.6921358,-0.8128373,9.184309,0.37597156,0.1467128,0.057980772
2.433414,-0.673957,8.705626,0.3823631,-0.10681994,0.072894454
2.524447,-0.45845297,9.461945,0.3099252,-0.51055485,0.20072608
2.8167095,-0.4297191,9.978924,0.21298619,-0.5116201,0.23055343
2.735261,-0.36267337,9.600765,0.32803464,-0.20695475,0.1325492
2.5579886,-0.008289013,9.232178,0.5261737,0.24045591,0.05904601
2.7208896,-0.0801237,8.51894,0.4420178,0.41835493,0.010043884
2.692144,0.020444859,9.1699505,0.075567126,-0.036512624,0.039871257
2.6346507,0.11622442,10.036367,-0.20672771,-0.4317254,0.100591265
2.5292459,0.44666386,10.888424,-0.070374,-0.37633172,0.13361444
2.5579944,0.68611276,10.428888,0.36318824,0.09025368,0.08354704
2.333202,1.2224749,10.189661,0.73176533,0.33739173,0.017499028
1.8588849,1.5289695,9.371115,0.75946206,0.39491585,0.0015200326
1.8109821,1.605593,8.882862,0.6923503,0.1190125,0.16237478
1.9547263,1.8641977,9.337612,0.56877965,-0.2580909,0.38181904
2.2134585,2.027023,9.935968,0.45053533,-0.29537526,0.46490952
2.4769816,1.8689866,10.405081,0.43668678,-0.04503842,0.39779788
2.347629,1.2990981,10.247118,0.57730144,0.15736154,0.30618516
2.2422318,0.9926034,9.730143,0.83616036,0.1200772,0.3860799
2.381185,1.0357043,9.5290985,0.96079606,-0.09297562,0.5373473
2.7357407,1.2081072,10.022146,0.84787804,-0.21867684,0.5746315
2.7405405,1.514602,10.505617,0.61458516,-0.10788954,0.44573453
2.3476734,1.2272631,10.4194565,0.59541035,0.12540306,0.31896812
1.811071,0.6908974,9.897696,0.84468186,0.38000092,0.34133863
1.9021124,0.27425623,8.801514,0.99381864,0.43432927,0.5224334
2.3812385,0.087485954,8.480799,0.8979448,0.18292695,0.6982019
2.9561877,0.3317238,9.064795,0.6071277,-0.074866936,0.6864839
2.7453852,0.6956861,8.906832,0.44307712,-0.13345656,0.5448038
2.352518,1.2655745,8.954702,0.59540963,0.02100655,0.4734311
2.3381534,1.0021806,8.2510395,0.72430646,0.23299387,0.5203027
2.6783357,0.8345662,8.389862,0.6433463,0.1584253,0.6076542
3.0951762,0.8058323,8.748877,0.3418766,0.011418838,0.61191523
3.0951853,0.9686575,8.906845,0.14373748,-0.023734972,0.5075194
2.961041,1.3374087,8.940355,0.15332472,0.0263323,0.40099296
2.9850063,1.495445,9.093536,0.20765306,0.10516169,0.33281606
3.095212,1.2655739,9.289799,0.18421714,0.2148837,0.26144335
2.850871,1.1410604,9.241932,0.17143387,0.26388574,0.18687488
2.467586,1.1266932,9.160561,0.22469692,0.2521677,0.19007064
2.3957276,1.1506381,9.036104,0.23641472,0.16268545,0.25718218
2.7934036,1.3086743,9.495644,0.14480193,-0.010952606,0.305119
3.3491888,1.4954445,9.624889,0.068102844,-0.06741168,0.29127052
3.5120974,1.6103799,9.490862,0.20552173,0.01993981,0.21670204
3.1288123,1.6870034,8.993032,0.43029222,0.2851903,0.101653546
2.7263627,1.8163059,8.657957,0.47822896,0.5099608,0.028150324
2.764701,1.7588379,8.562223,0.19380347,0.57174593,-0.0059381514
2.8126216,1.6726363,8.538292,-0.21206203,0.31714785,-0.027243463
2.5443249,1.7732047,9.256319,-0.42511484,-0.094043955,-0.005938235
2.5107956,1.7923605,9.524385,-0.33563283,-0.17926516,0.01749752
2.4868488,1.8306723,9.562681,-0.07677392,-0.090848394,-0.005938319
2.4485283,1.8306723,9.495668,0.059579697,0.076397866,-0.05174469
2.5156136,1.8402501,9.332918,-0.005401491,0.12646513,-0.06985422
2.50604,1.9168736,9.18453,-0.06505636,-0.08232663,-0.054940563
2.3527312,2.070121,9.380793,0.01590355,-0.23146364,-0.021917438
2.3192024,2.012653,9.299419,0.119233996,-0.11321949,0.0015183167
2.4246168,1.9551853,9.261127,0.14160441,-0.0013669394,-0.020852258
2.4054608,1.9551853,9.438242,0.07768849,0.04017823,-0.071984954
2.3431845,2.0126529,9.529196,-0.009663235,0.123268664,-0.09115973
2.2761173,1.8594056,9.414312,-0.0373602,0.15842223,-0.06452819
2.2186322,1.8163047,9.222843,0.0020544338,0.11048528,-0.0070040007
2.2138495,1.8019376,9.060093,0.049991176,-0.0024327715,0.034541238
2.328847,1.8737723,9.553139,0.01590263,-0.09298028,0.049454883
2.3571272,1.8881432,9.672674,-0.05333347,0.01781309,0.012172855
2.2804675,1.8450423,9.371103,0.034018148,0.20636472,-0.017654521
2.160688,1.8546203,8.969009,0.15971926,0.3011732,0.013238125
2.232555,1.8019416,8.547768,0.13947925,0.16268894,0.06330551
2.385872,1.9216661,9.184416,0.010582373,-0.13878062,0.09313289
2.2613006,1.9743448,9.754049,-0.119379774,-0.12280166,0.039869722
2.1031914,1.8977212,9.433332,-0.08529133,0.1531016,-0.01232819
2.0600705,1.8450423,8.911566,0.035083458,0.26069322,0.013238138
2.1702666,1.8594095,8.99773,0.030822411,0.08172896,0.061175
2.366704,1.8785653,9.356741,-0.07463867,-0.05249424,0.056913946
2.3714948,1.8498315,9.280153,-0.116183944,-0.041841596,0.018564463
2.1606827,1.9791337,9.318447,-0.058659703,-0.04184159,-0.01019765
2.074441,2.0461798,9.409397,-0.04055022,0.024204757,-0.012328174
2.2038026,1.926455,9.730114,-0.10020497,0.06788056,-0.028307127
2.1798458,1.926455,9.773195,-0.13429339,0.13392691,-0.06665661
2.0888128,1.9312441,9.265791,-0.03202809,0.08279427,-0.061330292
2.0025716,2.0557578,9.643951,0.09473828,-0.117475264,0.0068465797
2.2133827,2.0653358,9.792343,0.076628804,-0.10575736,0.017499218
2.3666992,2.0749135,9.610443,0.036148798,-0.014144689,-0.051742904
2.20859,2.1419592,9.14612,0.07556356,0.04337955,-0.09328818
1.8636252,2.1180146,8.710518,0.12669621,0.028465867,-0.044286057
1.9259096,2.0940695,8.763172,0.08728147,-0.031188883,0.04093503
2.2612915,1.9504,9.016874,-0.046941727,-0.05036362,0.033478186
2.323576,1.9743451,9.337593,-0.128967,-0.04290677,-0.034698676
2.3283668,1.9551891,9.294512,-0.06611645,0.06468485,-0.06559132
2.294828,1.9408222,9.026447,0.039344642,0.1392533,-0.062395524
2.1750479,1.8881433,8.868483,0.03401833,0.061489083,-0.05280815
2.1079712,1.8354646,9.246641,-0.041615374,-0.09510465,-0.06133026
1.9786087,1.9743451,9.438114,-0.046941686,-0.027993042,-0.085831314
1.9163231,1.9647671,9.189199,-0.0053964,0.19038598,-0.0922229
1.9498607,1.9360331,9.21792,-0.041615352,0.24471442,-0.06878709
1.8396631,1.8737764,9.596079,-0.14707643,0.20636494,-0.06665657
1.7103009,1.9408222,9.395033,-0.1566638,0.20849548,-0.06026498
1.7150915,2.0701249,9.141331,-0.022440588,0.10516493,-0.0059365383
1.8923644,2.1467483,9.54821,0.021235224,-0.026927738,0.06650138
2.1031752,2.1036477,9.8067,-0.11831429,-0.0077529876,0.057979282
2.055263,2.0653358,10.213581,-0.20673116,0.057228096,0.0057813684
2.007351,1.9743451,10.050827,-0.110857435,0.12966602,-0.010197582
1.973812,1.99829,9.490768,0.10539107,0.10516497,0.021760326
2.0360966,2.031813,9.131756,0.2247006,0.016748104,0.06756666
2.0504699,2.0892806,9.131756,0.17037216,0.028466009,0.044130865
2.0600514,2.0461798,9.021658,0.025496328,0.15097132,-0.026176525
2.069633,1.9839231,8.820612,-0.07037738,0.16481975,-0.059199687
1.8875681,2.0701249,9.059954,-0.07570369,0.050836563,-0.028307049
1.7725796,2.1802714,9.217918,-0.079964735,0.14990607,-0.008067036
1.7534143,1.9264553,8.930708,-0.08209526,0.45776722,-0.028307043
1.5138551,1.787575,8.222256,-0.11618368,0.6303399,-0.071982846
1.1018137,1.9743451,6.867583,-0.20247003,0.5206178,-0.052808095
1.6096774,1.9072994,8.107372,-0.7904955,0.08492503,0.09206774
2.2181559,1.1745857,10.687475,-1.544702,-0.22826245,0.05904458
1.7920483,0.81540954,11.836403,-1.2059522,0.04976742,-0.16572747
1.1835752,1.0644364,11.20933,0.049993403,0.41515273,-0.20407698
0.65655166,1.5050224,10.280687,0.80633044,0.46202427,-0.08263697
0.6996778,1.8450397,9.218012,0.67210716,0.3384536,0.06010832
1.1117243,1.9312415,9.52437,0.17782483,0.2202093,0.15704727
1.4423206,1.6343247,9.959974,-0.4133965,0.11368287,0.12402407
1.4806556,1.3900868,10.721081,-0.6786472,-0.10043516,0.079282984
1.586067,1.2416284,11.099243,-0.45707244,-0.14198051,0.071826115
1.7537636,1.2990961,10.48653,-0.002205009,-0.106826894,0.07502187
1.7633514,1.4427654,10.108372,0.3408098,-0.21761437,0.06756501
1.8208512,1.5624897,9.715853,0.37383285,-0.28046498,0.03454181
1.8448125,1.5624897,9.380777,0.28115487,-0.3145535,-0.025112974
1.6244241,1.706159,9.581825,0.21191268,-0.27620408,-0.090094075
1.4471562,1.696581,9.21324,0.1767589,-0.098305136,-0.12311727
1.2842621,1.6582692,8.758493,0.18528095,-0.022671496,-0.10607308
1.2842677,1.6199573,8.863806,0.10432085,-0.092978954,-0.047483608
1.5382053,1.5289667,9.069641,-0.07783929,-0.21228854,-0.02404784
1.6052872,1.5193886,9.084003,-0.09807937,-0.3880571,-0.042157345
1.5861281,1.6439021,9.40951,0.07342799,-0.47860456,-0.03257
1.6196718,1.6774248,9.490887,0.16610585,-0.29537934,-0.04641845
1.5861393,1.6199571,9.380791,0.058514148,-0.0642172,-0.07624586
1.4855301,1.6247458,9.237188,-0.08423123,0.057222772,-0.0815722
1.4519975,1.5337552,9.308992,-0.10021026,0.043374274,-0.050679583
1.5574088,1.5481223,9.318567,-0.07890505,-0.03652056,-0.00806907
1.7921818,1.543333,9.380798,-0.08529671,-0.19524491,0.020693019
1.8209344,1.6391127,9.89299,-0.10873258,-0.26661763,0.0025835126
1.7346989,1.6295346,9.7446,-0.06612211,-0.02586814,-0.046418633
1.696375,1.6151676,9.342508,0.039338905,0.13818236,-0.04748392
1.6197219,1.6343236,9.093594,0.05957884,0.084919125,-0.014460782
1.7826272,1.6391125,9.294643,-0.017120207,-0.043977834,0.018562362
1.8257536,1.6965802,9.548346,-0.11832031,-0.118546344,0.0079097
1.797012,1.720525,9.687166,-0.14175618,-0.074870616,-0.004873489
1.8209735,1.7109469,9.696741,-0.103406765,0.041243035,0.0025833296
1.830561,1.6486902,9.68717,-0.07464472,0.16374826,-0.009134595
1.806611,1.5098097,9.462191,-0.09062375,0.1807924,-0.011265148
1.816199,1.4140302,9.577076,-0.09488487,-0.020542461,0.030280104
1.8928632,1.4714979,9.940876,-0.081036516,-0.1941805,0.07289062
1.9407803,1.5098096,9.840355,-0.02564289,-0.15050477,0.07928217
2.0701475,1.5193876,9.744619,0.04466443,-0.010955304,0.07395583
2.1611857,1.4858646,9.42869,0.057447523,0.10196256,0.04838948
2.0462027,1.5098095,9.2803,0.03933797,0.07639616,0.008974701
1.9791318,1.4714977,9.251581,-0.0011421161,-0.041848157,0.021757837
2.060588,1.4379747,9.562727,-0.023512723,-0.13133037,0.03560624
2.022264,1.4523418,9.553154,-0.0075338404,-0.10363358,-0.00700433
1.7587548,1.5193872,9.6297455,0.02655452,-0.0066946764,-0.050680157
1.6821016,1.4571306,9.380833,0.007379705,0.11687583,-0.05174545
1.7539748,1.4475524,9.084049,-0.03629617,0.05935152,-0.007004408
1.8114744,1.4427636,9.208509,-0.039492037,-0.14624442,0.03347558
1.8977212,1.4379743,9.519655,-0.029904734,-0.24211821,0.05691135
1.9552208,1.4140295,9.538805,-0.0022079544,-0.14624457,0.030279735
1.8733009,1.4188226,9.342407,-0.0022018855,-0.026929034,0.0057808855
1.8253855,1.4331896,9.280178,-0.03629027,0.055096306,0.010041958
1.9020406,1.361355,9.284964,-0.100206025,0.038052138,0.023890402
1.9403657,1.3805108,9.356764,-0.13109863,-0.057821527,0.028151475
1.9068238,1.4188228,9.418991,-0.09914067,-0.12386781,0.03986939
1.9259845,1.4140338,9.46686,-0.06079113,-0.114280395,0.056913625
2.0888805,1.3134652,9.620035,-0.07144371,-0.045038212,0.048391536
2.1224146,1.2990985,9.658331,-0.11724999,0.010355537,0.012172595
1.983467,1.3421992,9.691837,-0.09061836,0.025269277,-0.012328448
1.9499251,1.3709332,9.514723,-0.018180385,0.038052488,0.0015199963
2.0265799,1.3326213,9.284954,0.037213366,-0.010949585,0.036673713
2.1128173,1.3613553,9.361542,0.024430256,-0.06101692,0.049456894
2.1463513,1.2703646,9.366327,-0.06611709,-0.04290739,0.034543224
2.108018,1.1937411,9.418982,-0.12896758,-0.036515757,0.01962955
2.0553112,1.1889521,9.529078,-0.11724964,-0.01840623,0.013237987
2.0984278,1.1697963,9.438126,-0.06398641,0.061488587,0.02069485
2.1607094,1.0883837,9.165276,-0.030963197,0.052966528,0.031347506
2.2661114,1.0548608,9.50514,-0.06505158,-0.09510505,0.04519595
2.40026,1.0692278,9.73012,-0.14494629,-0.19097874,0.035608597
2.342762,1.1554295,9.7875595,-0.10872728,-0.16860814,4.549158E-4
2.194232,1.1985303,9.648743,-0.0064619337,-0.08232174,-0.020850336
2.1750631,1.2176863,9.409399,0.044670764,0.03272677,-0.020850318
2.443365,1.1219066,9.318447,-0.024571313,0.011421546,-0.025111353
2.4289875,1.1506406,9.423758,-0.08635654,-0.15262899,-0.062395558
2.20859,1.3326218,9.615229,-0.055463854,-0.25809005,-0.06239554
2.203795,1.3565667,9.543425,-0.0011353643,-0.16115099,-0.030437615
2.2852407,1.1602187,9.299295,-0.017114267,0.034857545,-0.024046017
2.395434,0.9016139,9.227491,-0.14494585,0.05190181,-0.05493864
2.3091888,0.8202012,9.490767,-0.2557332,-0.13451926,-0.07624389
2.107956,0.8633021,9.6104355,-0.23123208,-0.29111296,-0.05174281
2.14149,0.93034786,9.490765,-0.07250776,-0.25063288,0.01643407
2.3810449,0.8058345,8.954639,0.05745443,-0.11747489,0.051587787
2.577479,0.705266,8.705723,0.03508395,-0.18778224,0.042000435
2.5822663,0.82977945,9.361517,-0.12896657,-0.31987488,-0.0027406183
2.3858242,0.9495039,9.80669,-0.26532027,-0.17286845,-0.083700635
2.2468762,0.9973937,9.543413,-0.15346755,0.12753591,-0.13270274
2.1175108,1.0069717,9.088665,0.039345205,0.30223918,-0.11672376
2.146254,0.944715,8.705717,0.04573683,0.25749817,-0.08796163
2.3474793,0.92555916,9.141317,-0.1332274,0.018879188,-0.0709174
2.472046,0.978238,9.811472,-0.28662527,-0.06421132,-0.09861422
2.3283072,1.0357058,9.81147,-0.2408189,-0.031188097,-0.11991948
2.0647883,1.198531,9.907206,-0.053332474,0.013553019,-0.087961555
2.2516403,1.1027515,9.586489,0.022301288,0.18612576,-0.031502567
2.6157656,0.88245845,9.385439,-0.029896574,0.13818894,-0.028306762
2.7259583,0.8010459,9.710943,-0.10233445,-0.06208054,-0.0762436
2.2995405,0.8920365,10.0555935,-0.06611543,-0.081255235,-0.1454857
2.0743513,1.1314855,10.160904,0.027627807,0.079599604,-0.1625299
1.925821,1.1123296,9.428516,0.15759002,0.30969658,-0.13483304
1.9162351,1.0883847,9.1796,0.21831007,0.3650903,-0.06878668
2.0887132,0.97344923,8.949831,0.08834798,0.33206722,-0.03682876
1.9733578,0.8441501,9.055035,-0.09593786,0.13180237,-0.04534914
1.8296117,0.92077386,9.619877,-0.24613987,-0.104686,-0.02510908
1.863139,0.94471884,9.634235,-0.23335658,-0.14836167,0.017501514
1.9445778,1.0021867,9.72518,-0.079958476,-0.113207825,0.05478579
2.0643458,0.95908594,9.619867,0.034024857,0.04977764,0.053720582
2.2751465,0.80583876,9.279999,0.030829212,0.13393359,0.020697461
2.1649384,0.8585176,9.38052,-0.04906541,-0.022659997,-0.004868811
1.968489,0.98782015,9.682087,-0.10552423,-0.10255462,-0.0038034949
1.9924337,0.9782423,9.710804,-0.107654616,-0.048226036,0.020697618
2.1505318,0.8920408,9.706015,-0.08102287,0.013559388,0.03561136
2.3038378,0.7004817,9.706011,-0.05439115,0.03806059,0.03454615
2.4092321,0.5280786,9.638992,-0.011780468,-0.0045498074,0.012175667
2.1552892,0.66695905,9.495384,0.05213549,-0.104684435,-0.010194815
1.963631,0.8441514,9.46666,0.09794197,-0.06633481,0.0036536637
2.006741,0.729216,9.217741,0.022308396,0.033800106,0.02602425
2.1169262,0.46103328,9.236885,-0.0874136,0.06469289,0.035611674
2.4427152,0.18327264,9.294325,-0.15878612,0.034865655,0.047329627
2.5001984,0.07791521,9.552811,-0.16517755,-0.0759216,0.035611782
2.3899899,0.24552956,9.533659,-0.09167422,-0.0428983,0.01111077
2.2797818,0.37962103,9.193792,-0.0011266832,0.058301877,-0.00167234
2.2893534,0.18327303,8.672022,-0.026692864,0.039127275,-0.0016722878
1.9108394,-0.65000916,9.102835,-0.1470675,-0.16540319,0.018567773
1.6952255,-1.9526112,9.61981,-0.3707727,-0.15368515,0.13681209
1.7431262,-2.9008286,9.337383,-0.46451575,0.10517404,0.34240797
1.8341473,-3.2504241,9.074104,-0.4144482,0.5238227,0.50645864
1.7526863,-3.5856524,8.896988,-0.49327755,1.126762,0.5309597
1.5131165,-3.8586242,7.781653,-0.7617238,1.5091918,0.46491343
1.1393939,-4.4955583,6.848217,-0.97903746,0.90412223,0.44893453
-0.015289739,-4.6440167,8.193314,-1.2144606,-0.1238569,0.57463574
-0.86333835,-3.997504,9.72031,-1.5596058,-0.108943075,0.86651796
-0.20695885,-3.4228265,10.696819,-1.8972942,0.8593816,1.1850319
1.211217,-3.12591,10.175053,-2.0666711,1.82238,1.2404256
1.5417968,-2.680535,9.519255,-1.9558834,1.8607296,0.9496087
0.3439926,-2.4937644,9.547972,-1.736439,1.1928096,0.6587918
-1.5149934,-2.0723345,10.433531,-1.6938283,0.6985274,0.6982066
-2.4349098,-2.335728,10.672871,-1.899424,0.78587914,0.99328464
-2.6457324,-2.6949015,11.31909,-2.1263251,0.9861488,1.4705228
-2.0085173,-2.9774508,11.414824,-2.1891754,1.2194417,1.8433651
-1.6348172,-3.2312667,10.452665,-1.8664005,1.4633873,1.9094114
-1.3473579,-3.0588634,9.729851,-1.5553433,1.5816317,1.8060809
-1.8312775,-2.8289921,8.581007,-1.4317726,1.6519392,1.6462914
-3.7765045,-3.2983122,10.103218,-1.352943,1.9491478,1.6313778
-5.122835,-4.5913367,11.007925,-1.6661303,3.2082894,1.8486916
-4.557488,-5.9801397,9.337318,-1.9889051,3.901776,2.2289908
-3.1584768,-5.1755915,8.475685,-1.7460247,3.0335863,2.5336561
-1.999024,-3.5042377,8.32729,-1.2581339,2.1270473,2.4420433
-1.4288857,-3.0397067,7.666704,-0.9854263,2.0088034,1.9552182
-3.3789039,-3.9496126,7.2454596,-0.89381355,2.66181,1.3203211
-6.4213095,-5.4102516,6.020027,-1.4168578,3.175267,0.9400222
-8.002408,-5.822103,4.2441096,-2.177456,1.8042731,1.262797
-6.7746778,-3.1019735,8.748865,-2.0379217,-0.13239124,1.8923621
-1.6481107,0.686108,16.053576,-0.7915635,0.7592342,1.5120631
-3.4304137,-1.6604915,8.399433,0.7243064,2.8855,0.43614683
-7.397492,-3.346212,3.191364,0.81378835,2.215449,0.473431
-6.6883855,-2.192068,5.1491823,0.39940068,1.087335,0.84307736
-7.4118395,-2.1537566,5.0295153,0.022297222,0.9413936,0.76850885
-9.692427,-2.034032,3.6748452,0.06810339,0.8625639,0.7866183
-9.5870075,-0.92298937,5.7236133,0.1565201,0.5909215,1.0774353
-8.283795,-1.0475029,5.350244,0.10964834,0.83167094,1.1935488
-7.9531913,-1.8137394,2.2340202,0.34933245,0.97228557,1.0635867
-7.301579,-2.852948,0.08952294,0.4750334,0.7187527,0.9187107
-6.784119,-2.7284346,-0.7050875,0.3844858,0.39917344,0.831359
-7.2248945,-2.225592,1.9133136,0.38874674,-0.11961004,0.62256736
-9.117396,-1.4976674,5.9725513,0.61458236,-0.6330672,0.25824714
-11.97292,-2.5129309,6.8772664,0.5954075,-0.29857463,-0.2679931
-11.838756,-4.5099354,2.3058448,0.15225773,0.79651606,-0.4181953
-7.5027313,-3.628763,-0.700282,0.012708034,0.7656233,-6.1206834E-4
-2.5151086,-0.03224051,0.16613835,0.41324696,0.068940796,-0.043222666
-1.6814315,-0.34352428,1.2288188,0.87131006,-0.3859269,-1.2906463
-5.4281154,-4.064561,4.4407873,0.9320299,-0.6245461,-2.9268913
-9.70662,-6.482995,5.029571,0.77117497,0.5461784,-3.8749757
-10.827742,-6.497362,4.7375774,0.65080005,2.0727007,-3.8504748
-9.998856,-4.543459,5.867274,0.02442494,2.5925493,-3.1761632
-7.349324,-3.1785998,2.4782007,-0.75641346,2.8524733,-2.5497882
-6.2665067,-5.4198422,-3.0218658,-0.7233904,2.593614,-2.6999903
-7.7230105,-8.039413,-4.271225,-0.112994544,1.1725526,-3.4286308
-9.490941,-9.198347,3.8999004,0.18847486,-0.46049666,-3.8717804
-8.369793,-5.6018243,7.5857654,-0.25147912,-0.25383568,-3.429696
-3.7031784,-3.9017363,3.0334918,-1.0834501,0.4364549,-2.7852116
0.5274396,-8.570991,-0.5279076,-1.5266,0.11154938,-2.1332705
0.25914672,-11.506635,-3.7350814,-1.1548232,-0.28153303,-1.7955819
-5.485456,-14.681727,-2.557517,-0.00114287,-0.78859866,-2.4965255
-11.761879,-13.925069,4.6897507,0.8105877,0.018870953,-3.5191784
-10.386801,-6.056777,4.100974,0.03187997,2.0279577,-4.4044123
-3.185655,-6.3010154,1.640546,-0.5998215,2.6277008,-4.978589
1.0976659,-9.160035,-0.365133,-0.38996473,1.4079741,-4.6259875
4.5377407,-10.7547655,-1.3847245,0.20871322,-0.22400978,-3.637423
5.3426704,-12.272872,-0.7337116,0.51763946,-0.95158494,-1.7955823
3.7088928,-13.168411,0.93689656,0.34719715,-0.60537446,-0.09116079
0.628182,-12.579367,2.1623294,-0.026710518,0.20529093,0.66304576
-2.7447906,-10.376436,1.7793865,-0.39209604,0.3736024,0.33281395
-1.0918233,-9.51921,0.8651052,-0.5305805,-0.105766356,-0.5130053
-0.13357605,-9.65809,0.4247204,-0.39635748,0.033783007,-0.38517377
-4.3402123,-0.15675688,-0.015664414,-0.06719118,0.5333914,-0.15614216
-2.9603424,5.4990263,-0.14011833,0.13627398,0.17759325,-1.2938436
1.9745783,-5.0798273,-0.9778102,0.06916221,-0.5371987,-2.018223
6.315393,-13.613787,-1.5665869,-0.035233784,-1.2796875,-1.6027702
5.093657,-10.429115,-0.61400354,-1.1079544,-2.9830441,0.427622
-4.277863,-7.991526,-1.691037,-2.8347466,-3.058678,1.3458791
0.63310105,-16.434494,-3.3377037,-2.78681,-1.239208,-0.962547
1.1780795,-20.366236,3.5023253,-0.41232184,1.5784296,-1.3034257
0.5552154,-19.772402,1.0801849,0.8095355,1.7254361,-0.3276442
3.1855574,-16.611675,3.1576667,0.4856956,-0.1973645,0.41697508
4.0958686,-12.89064,2.9231086,-0.024565483,0.6218233,0.8185795
2.8453608,-11.884955,-0.5760691,0.015914682,1.6892176,1.1807691
1.7433795,-10.352482,-1.7249123,0.3003402,1.3781608,1.2574682
0.7372216,-7.340214,-0.7866966,0.36532143,0.9019881,1.2127272
-1.1409297,-4.490772,0.20417431,-0.065044895,0.848725,1.1583989
-2.6214137,-3.7963696,-2.1270163,-0.8874282,0.43646818,0.81005764
-3.589242,-5.8891535,-1.2797505,-0.88316697,-0.19416766,0.2667733
-3.7186155,-10.44826,0.84081274,-0.42084247,0.11582418,4.5747834E-4
-3.6802974,-12.129192,0.16586602,-0.18754959,1.4069238,0.25399023
-1.7207198,-10.438683,-0.9351088,-0.15559153,1.9225115,0.4585209
-0.15880932,-9.107347,-0.89681756,-0.20672403,0.86790067,0.31044933
0.06636411,-9.078612,-1.1553098,-0.12043754,0.040191073,0.102722995
-0.5181706,-9.437786,-0.7723667,-0.022433145,-0.29430154,-0.043218046
-1.0643759,-9.763435,-0.63355196,-0.009649832,-0.20268872,-0.07198011
-1.1170905,-9.811325,-0.6670632,-0.044803377,0.023147302,-0.014455827
-1.002114,-9.854425,-0.83939254,-0.066108495,0.3395307,4.5791792E-4
-1.174608,-9.864004,-1.1553268,-0.11830626,0.54512674,-0.028304145
-1.4956281,-9.624556,-1.3180826,-0.21204929,0.4151647,-0.06026199
-1.5100133,-9.255804,-1.4281832,-0.27703023,0.169089,-0.080501944
-1.7974954,-8.992411,-1.2510736,-0.31005323,-0.0066793314,-0.11032927
-1.936451,-9.207913,-1.0787511,-0.3484026,-0.0673992,-0.1955503
-1.5052572,-9.691601,-0.8059051,-0.38781717,-0.08018222,-0.20939867
-0.8824165,-9.725122,-0.2362755,-0.43788442,-0.0056136204,-0.1305691
-0.350608,-9.413839,0.11315985,-0.47942954,0.19252554,-0.09328484
-0.37936667,-9.03551,-0.2650033,-0.4240357,0.38001207,-0.12311216
-0.83933085,-8.901419,-0.8968686,-0.26105022,0.4417975,-0.17744054
-0.9974513,-9.07861,-0.7867749,-0.11937001,0.39812183,-0.21046364
-1.2274392,-8.56619,-0.04481923,-0.15665409,0.5025178,-0.17744043
-1.1795392,-8.432099,-0.52350587,-0.3089866,0.8199665,-0.08263192
-0.9687392,-8.599713,-1.5143836,-0.37396753,0.88601303,0.13787769
-1.7449208,-9.140868,-0.14056608,-0.3824895,0.67509097,0.34773466
-2.8756495,-10.1130295,2.573564,-0.5028641,1.050064,0.3157768
-1.682659,-10.213598,0.50564945,-0.5699756,1.9033401,0.087810464
-1.1412683,-8.695491,-2.2946506,-0.28022376,1.5613906,-0.010193728
-3.4170866,-8.13997,-2.2994409,0.068117574,0.34059882,-0.2402906
-4.2172246,-9.624554,-0.99742603,0.11605459,-0.6266603,-0.593958
-4.653232,-10.649395,2.214535,-0.116172716,-0.8610182,-0.5811748
-2.5595021,-11.166605,3.2484872,-0.36544424,-0.036504023,-0.40540627
-0.33161837,-12.675133,4.579223,-0.04266923,0.79014057,-0.036825042
-2.0564523,-14.74876,4.0191607,1.4838536,1.6870928,0.27423194
-5.0030346,-12.1291895,1.0704684,3.0178332,1.6817665,0.31045097
-5.324055,-11.1330805,-2.227662,2.8697617,-0.09722345,0.27103627
-3.8292208,-13.987312,-5.2720904,2.3712184,-2.4067147,0.47343642
-1.4480199,-14.949897,-4.3482356,2.226343,-3.7244456,0.9229777
1.1775309,-12.584142,-1.2942402,1.991985,-2.8679733,1.085963
2.059095,-11.750859,-2.682425,1.4625491,-0.42425874,0.7227082
2.2028189,-12.91937,-1.9691904,0.91606915,1.1640494,0.5810283
0.7756511,-12.062147,1.1137049,1.2505541,1.3174396,0.8345582
0.5744225,-10.931949,1.4439965,1.343232,0.32461393,0.70033497
1.4464163,-10.539252,0.6541694,0.80953497,-0.8482412,0.48089063
1.5182844,-9.878373,0.027094573,0.48676014,-0.78219485,0.56824225
0.5313035,-9.179182,-0.62870127,0.28329483,-0.13771044,0.79940444
-1.2270563,-8.130396,-0.9111242,0.07450315,0.0039696004,0.9314971
-1.792414,-6.9714637,-1.0068607,-0.032023214,-0.34863263,0.7418802
-0.6808614,-6.5165105,-1.1408918,-0.076764286,-0.7353233,0.373299
0.5456793,-6.219594,-0.67178214,-0.050132703,-0.9355929,0.15065894
1.1829058,-5.544348,0.2185688,-0.05013271,-0.8993739,0.039871514
1.3362238,-4.701488,1.046691,-0.17263803,-0.8525023,-0.07837275
1.3649714,-4.054976,1.7407819,-0.40486547,-0.77260756,-0.22218332
1.3697631,-3.8777833,2.1715968,-0.6583982,-0.42959273,-0.34149286
1.2164462,-4.1603336,2.3582835,-0.9076699,0.08173378,-0.40647393
0.12405944,-5.3958898,3.9522986,-1.0845037,0.4162265,-0.38729918
-2.1948676,-8.681129,7.6477327,-0.9406931,0.56323284,-0.25094545
-5.9655194,-14.3033905,10.227835,0.053197797,0.6559108,0.2007263
-9.079782,-15.218085,6.1542416,0.25027153,0.21702223,0.64068013
-9.372043,-8.379423,2.7508044,-0.71166146,-0.7097571,0.35092846
-5.227678,-6.655391,-4.295412,-0.92045313,-0.62560123,0.012174636
0.71337694,-11.765232,-6.229292,-0.5326972,-0.07272948,0.34347156
2.7304611,-25.940607,10.864485,0.5346969,0.7560455,1.1275055
-2.0463371,-17.152832,0.15634212,2.071872,0.8157003,1.7581416
0.75649923,-2.2543197,-6.2915206,0.13522305,-0.6021655,0.64387596
5.1691694,-4.0118747,-4.5969815,-0.93323636,0.88494235,-0.27970758
6.036372,-8.139975,-5.1714015,-0.16305076,1.8053302,0.011109358
2.893364,-12.397377,-3.1417847,-0.06611179,1.4921427,-0.031501185
-4.130494,-15.75445,-0.26011148,-0.8149921,0.96483713,-0.60461295
-7.637632,-15.342599,-2.3519568,-0.79475206,0.70065176,-0.8645373
-8.48567,-10.429106,-0.14044036,-0.18755186,0.325679,-0.70687824
-5.634921,-8.336323,0.11326192,-0.39527825,0.11475683,-1.0658721
-2.6260643,-8.623662,-1.4568188,-0.80647,-0.72786665,-1.1883774
-1.4570175,-8.072929,-0.6239099,-0.6370931,-1.3233489,-0.883712
-0.58981466,-7.1726007,0.14677021,-0.44214985,-0.9185488,-0.74522775
-0.16339979,-6.195649,0.4196198,-0.5614594,-0.223997,-0.685573
-0.2879697,-5.2139087,-0.073423736,-0.81499213,0.19465154,-0.6418972
-0.35025442,-4.284847,-1.0307901,-0.99821746,0.24258842,-0.742032
-0.3358803,-3.8921502,-1.5908492,-1.1143312,0.091320984,-0.8517541
-1.0593468,-5.06545,-1.2749182,-1.1910301,0.008230421,-0.74309725
-2.2906775,-8.460836,1.836523,-1.1612028,0.4492495,-0.42564872
-1.9217567,-12.732605,7.350954,-1.3092744,2.1355615,-0.091155976
0.49778593,-12.406955,5.9292645,-1.5851777,4.237327,0.052654594
0.22468963,-9.418632,1.6737711,-0.818188,3.3052208,-0.28396872
-4.2694297,-9.591035,2.6167772,0.44095352,0.29478627,-0.87625515
-8.035291,-16.156723,2.2051098,0.7253789,-0.5297277,-0.73670566
-8.734802,-21.649683,-1.3132116,1.2814463,-0.14836338,0.42975786
-8.85458,-21.424599,-3.213584,2.2327268,-0.3912435,1.5248487
-6.875825,-17.186354,-3.6635456,2.4340615,-1.3947216,1.5184572
-2.031949,-11.477893,-0.92069095,2.0132825,-1.9028524,0.7898169
0.516955,-11.276755,-2.5434268,1.7980992,-1.4788775,0.4638463
1.2211744,-17.421013,-1.375464,2.0793297,-1.1603626,0.8026005
1.245129,-19.365337,0.42917138,2.379734,-0.40189505,1.2244449
2.4812503,-15.079204,-0.64307934,2.177334,0.17334728,1.0795691
3.6311307,-11.899322,-0.4994747,1.6564204,0.16589046,0.89421314
2.5866542,-9.078613,-0.700522,1.1759864,0.12008414,1.1221796
0.5408222,-6.511721,-1.8014936,0.7211189,-0.1504928,1.2297713
-0.7815424,-5.467724,-2.6774843,0.35892937,-0.4040255,1.014588
-1.6535369,-4.744588,-3.9842896,0.027632412,-0.5702066,0.79727423
-1.5912528,-3.2983162,-3.6587856,-0.1470708,-1.1337309,0.63961524
-0.7000958,-1.5455503,-2.3615544,-0.3302961,-1.7579753,0.38075617
0.4018727,-0.037022077,-0.7675396,-0.6019383,-2.0605104,0.12722348
1.0390974,0.76273733,0.433955,-0.99182475,-1.8336091,-0.041088168
0.526441,-0.20463634,1.5397128,-1.4179301,-1.3787414,-0.10926504
-1.1552618,-3.5617101,4.593711,-1.6629407,-0.87593716,-0.09648187
-3.852693,-8.81522,9.050251,-1.5010207,-0.04503157,-0.01552183
-7.1490207,-19.470695,10.007618,0.0137841,0.3469854,0.45532465
-6.6172013,-22.971437,3.8900461,0.7722517,-0.9132213,0.7791648
-2.928,-11.482681,3.9379144,-0.370776,-2.1542532,-0.116721846
-0.09162696,-3.2504265,2.8082213,-0.5071297,-0.44344008,-0.2733156
1.4367558,-1.7897881,-5.492146,-0.609395,1.182152,0.2752951
4.0239882,-7.507828,-8.244574,-1.1356351,1.177891,0.5309584
5.250527,-27.473078,9.548079,-0.33242646,0.27880862,0.0132403225
0.7037032,-20.691885,6.0153975,2.0857217,-0.51587796,-0.36066717
0.09522322,-2.8720973,-5.884667,-0.1460053,2.2239797,-0.10713445
1.2738506,0.48976564,-4.1470475,-1.8578838,2.0194492,-0.16039762
1.5804845,-5.352788,-7.10531,-0.5859592,1.4505986,-0.60674304
-1.0354967,-11.104352,-7.5504856,0.2055317,1.4292934,-0.7857073
-6.2530847,-16.664354,-2.9407668,-0.80433816,0.99679637,-0.97958523
-11.001138,-18.785872,-0.89200306,-1.86321,1.1736301,-0.80488205
-13.674613,-12.296807,-0.8489219,-1.4626709,1.269504,-0.30207765
-10.057279,-8.58056,-1.0691166,-1.1132644,0.0029055132,-1.023261
-4.0635233,-11.2528105,-0.15004504,-1.8930374,-2.0818152,-1.7465749
-1.4523356,-12.531467,1.1998414,-2.073067,-2.9563968,-1.217139
-0.39827865,-11.961578,5.077175,-1.3849066,-1.9348087,-0.68557245
-0.03894186,-9.586246,8.724741,-1.0397613,-0.2932377,-0.63017875
-1.5146241,-7.9627814,8.834837,-0.7457485,0.79333115,-0.65254927
-4.092276,-7.7472773,5.0101585,0.25879502,1.1278238,-0.47358504
-4.854073,-6.5356655,3.8038764,1.6074187,0.78480905,-0.03789224
-3.1915379,-4.514717,4.0144963,2.445781,0.7794827,0.36797318
-1.6583636,-3.087601,-1.2270848,2.6907916,0.5376679,0.5714385
-0.9780183,-5.257008,-4.759767,2.282796,-0.61601245,0.5948744
-0.78158134,-10.836167,-7.6510143,1.713945,-1.6152296,0.9144534
-2.5064044,-22.50212,-4.745407,1.8630819,-2.8562617,1.7634684
-4.628895,-30.547602,10.548521,2.477739,-1.2104294,2.8766687
-1.8883455,-12.727815,-0.016017936,1.8034272,3.5971048,2.7754688
2.969902,-7.5413513,-5.405991,1.1695955,0.91903234,1.1626598
5.609837,-13.953793,1.9609432,1.5424377,-2.206451,0.15065946
3.5113025,-14.609882,3.229453,1.3528208,0.4950575,0.5011312
-2.166238,-8.872687,-0.365458,0.28010046,1.9065318,1.317123
-4.9307456,-4.399781,0.09407756,-0.5870241,0.44499016,1.3075358
-4.0964694,-4.069347,0.7739861,-0.7809099,0.07107483,0.55758727
-2.6974363,-4.902629,-0.3604899,-1.0227249,-0.06634431,-0.11033303
-2.2949662,-3.671862,-0.7099254,-1.3444346,-0.8216163,-0.5577437
-1.1067446,-2.2399573,-0.20251797,-1.5425738,-1.3830103,-1.1542914
0.4935181,-1.483299,1.1090773,-1.6107508,-1.098585,-1.4930452
0.4839468,-2.2447464,2.7653244,-1.4797235,-0.08445436,-1.1574873
-2.9465218,-5.6161876,6.436828,-0.7894329,1.1491207,-0.23177333
-8.470732,-6.6889195,6.6618123,0.10325781,2.3741734,0.8356207
-8.901927,-3.6670735,-0.5902352,-0.25360563,1.7850828,0.93788594
-1.2168748,-3.54256,-5.726503,-0.7095386,0.07639986,-0.057070274
3.3155851,-6.928368,-5.9323335,-0.30793434,-1.0069733,-0.35853994
8.446941,-24.752945,6.7910695,-0.33776185,-1.2796808,0.19965813
9.088969,-42.63499,-1.3609022,0.08195183,0.4897217,0.94534254
1.8063995,-15.54374,-13.610403,1.1280404,3.2977562,0.7109846
-0.68979037,0.5472269,-7.65558,0.101126276,1.6977303,-0.6323128
-2.0408897,1.4571327,-4.1851234,-0.9769206,-1.2104393,-1.946848
-5.859443,-5.2139144,-2.227306,-1.4371146,-2.295943,-2.5678968
-9.337824,-18.958282,-1.3130176,-1.9889213,-1.4639723,-1.8467134
-13.645077,-21.544329,2.5595326,-2.1764078,0.6292704,-0.25414452
-9.697139,-13.283343,0.72139245,-1.9772036,2.7012076,-0.1039424
-1.978549,-12.564997,1.7936461,-1.8280668,1.6465968,-0.8592143
0.27331316,-12.45964,4.8332877,-1.4200711,-0.8493158,-0.9518922
-0.8334366,-11.04689,6.8246136,-1.0205975,-1.8815563,-0.91247755
-2.5726213,-8.642823,7.1070395,-0.7819785,-0.51908445,-0.94656605
-4.024335,-6.3010135,4.8524446,-0.12471102,1.1789455,-0.9976988
-3.971621,-4.155551,3.5504296,0.9203123,1.7062508,-0.6269871
-3.0373316,-3.2121222,5.9055543,2.1837146,1.9288907,0.24652895
-2.3857207,-3.4372041,1.3341328,3.1712139,1.9331517,1.0529335
-1.6861986,-3.7245429,-3.6010878,2.828199,-0.100436576,0.9027312
-0.5363061,-6.8996363,-6.2577767,2.292371,-2.0999365,0.37222987
-0.8956329,-13.115729,-8.411848,2.163474,-3.0043452,0.6460026
-5.298709,-27.123491,-0.8534364,2.584253,-3.8299248,1.921123
-9.807192,-31.701756,10.017462,2.8942447,0.38638827,3.3858602
-3.5259533,-11.362964,-1.8251569,1.7671957,5.9374766,2.6391106
5.701856,-8.33633,-1.7724985,1.1408206,2.2921443,0.9826256
7.1583834,-13.561106,2.8132899,1.0300331,-1.6770275,0.6193707
2.0414224,-10.11783,1.3580962,0.6976707,0.15948658,0.95492864
-3.8325438,-6.3105927,-0.4704704,0.059577692,0.7901224,1.2318971
-5.629222,-6.267492,1.1905636,-0.55188376,-0.10576432,0.91444856
-4.1631126,-7.8861666,1.7601998,-0.77345866,0.00395768,0.33387986
-2.7017937,-7.4072685,1.0900466,-0.93644416,-0.34757945,-0.07411611
-3.2719321,-4.538671,-2.1410618,-1.2549582,-1.2115083,-0.6536195
-1.9735132,-1.7083846,-2.4378421,-1.4030299,-1.8783634,-1.3769335
0.16815189,-0.90383637,-0.2885514,-1.2986342,-1.1369401,-1.6219441
0.15378949,-1.0235609,1.6166111,-1.2240659,0.32034022,-1.163881
-2.3567739,-4.59135,6.0540075,-0.82033116,1.6593764,-0.43630597
-7.6701727,-8.422533,9.040995,0.10112168,2.2601848,0.6396102
-9.13626,-6.2770705,6.2263403,0.15971103,0.70276946,0.9847555
-4.033651,-6.3536944,1.5448215,-0.036297604,-0.8983218,0.13041407
1.960117,-9.4234295,-7.9474635,0.48142034,-0.7949914,-0.0794429
5.787384,-18.723616,-6.516457,0.13841684,-0.35928735,0.2635761
13.424505,-31.107914,-2.1987364,0.28329277,2.1419513,0.5362836
9.17952,-19.489851,-4.438976,0.2875539,5.08634,0.62257004
1.3699026,-3.8777845,-5.3101807,-0.052265067,0.82422066,-0.38090825
-1.3035783,-0.71705884,-5.0804152,-0.7510779,-2.7231069,-2.0363278
-4.9975786,-3.743693,-4.611307,-1.3923664,-3.0064669,-3.0621765
-10.205591,-15.730507,0.5776165,-2.3276677,-2.3481338,-2.8086438
-14.8434515,-24.733786,3.5215163,-2.3947792,1.0702969,-1.0147399
-12.88866,-16.27645,0.16115823,-0.8607997,4.239456,0.14426684
-5.09822,-9.567091,1.592419,-0.8086017,3.3467653,-0.54708916
-0.7765893,-10.218391,1.8892007,-1.8621472,0.2798716,-1.1361799
-0.30226994,-10.687711,3.6938343,-1.6980965,-2.9180493,-1.2629461
-1.7012991,-8.714652,8.150373,-0.92578036,-2.4141798,-1.2373798
-4.695788,-6.291429,6.939303,-0.4410854,0.8774847,-1.1777251
-7.120128,-4.6535983,3.5071423,0.24068335,2.633039,-0.88051647
-6.3870854,-4.088499,3.2965198,1.5008901,2.6458223,-0.13270147
-5.155761,-4.3614707,0.23773196,2.5288696,2.0577967,1.0348275
-3.3207488,-7.637132,-7.512151,2.021804,0.059362665,1.712335
-2.7793527,-15.218085,-7.612676,1.3783851,-3.1960826,1.8966256
-6.45898,-23.263567,7.7674127,1.6500274,-4.4168744,2.6550932
-5.107876,-18.939121,5.3596344,1.9056908,-0.23358455,3.1536365
2.0884585,-13.767024,-7.368554,1.9387139,1.7808288,1.9030173
5.284164,-16.630833,-3.9411843,2.1677458,-0.89724356,1.0081961
3.7413998,-16.45364,3.957087,2.355232,-1.1742119,1.5472194
1.077501,-12.895431,3.5980725,1.6564195,1.9587281,2.0606763
-1.265389,-9.102558,-2.371109,0.6614633,2.9728591,1.9903691
-3.7951345,-5.577871,-1.2605658,0.05106748,0.8103742,1.5802428
-3.4118476,-4.0693426,0.81691736,-0.2791641,-0.21867026,0.8526677
-1.9265908,-3.9591956,-0.6957236,-0.8235137,-0.5989692,0.09526534
-1.4331068,-2.4267225,-1.8876467,-1.2240528,-1.3670241,-0.508739
-0.5611199,0.17369267,-1.6387335,-1.4189959,-2.0914035,-1.082916
0.80914867,1.3038917,-0.22183305,-1.6011558,-2.0370748,-1.616613
1.3361709,1.6295422,1.3003776,-1.6874422,-0.9004385,-1.8477752
-0.019737497,0.101858154,4.411816,-1.3486882,0.39492205,-1.6677457
-6.7034297,-6.473409,8.691242,-0.08422029,1.3376805,-0.4416273
-11.897068,-7.555719,4.2921414,0.63163686,2.242089,1.2159228
-8.730108,-7.7951674,-2.5817509,0.07663467,0.9818825,0.9613248
-0.35993743,-10.692499,-8.024381,-0.23548746,-1.0794022,0.012175066
5.3607154,-21.999275,-3.02693,-0.32390425,-2.4972682,0.34879836
11.095742,-43.77476,3.4209309,-0.56358844,-0.48285457,1.6324409
6.477046,-18.809816,-6.358569,0.47184777,2.6362371,1.6825083
0.29642653,-0.11364542,-7.057449,0.8500164,0.06682156,-0.73137873
-1.6775432,1.0404985,-4.4773483,-0.38675445,-2.1617095,-2.7159648
-5.155941,-3.1833801,-4.324171,-1.4019506,-2.5707707,-3.6288955
-9.966285,-16.35307,-2.3807197,-2.7441826,-2.6517308,-2.9002554
-14.441246,-24.159105,2.3965368,-2.9210162,-0.5947068,-0.60461223
-10.718513,-13.628141,0.050987244,-1.2133987,2.715067,0.5043271
-2.3483405,-8.9972,3.732059,-0.9428216,2.6085408,-0.5428269
1.5277112,-10.515306,2.9853113,-1.9654745,0.43646857,-1.1660061
0.104726255,-9.787381,6.08239,-1.9058197,-2.0711617,-1.1990291
-2.6834364,-8.580562,8.734383,-1.410476,-1.0900577,-1.3652116
-4.8873763,-7.2300696,3.574177,-0.79688424,1.1885409,-1.4653465
-5.907897,-4.361471,5.3261576,0.36851415,1.9842927,-1.0573505
-7.239843,-2.828998,5.3835993,1.4252555,3.1827142,-0.26159868
-8.662823,-2.9151998,1.6977383,1.8875799,3.331851,0.5725027
-6.655321,-3.4036756,-3.831053,1.8289903,0.9211598,1.1392229
-1.6533378,-8.226177,-8.191856,1.6351124,-3.454943,1.2542714
-0.9346624,-18.74756,-10.834188,1.5296514,-7.0448804,1.7560104
-6.976331,-29.853203,-1.9785494,2.1325905,-9.271281,2.971476
-12.438269,-29.38867,5.6181526,2.6609614,-5.117819,3.444453
-1.8593603,-16.779291,-2.4141514,1.8076853,1.5528612,1.6899642
7.516964,-10.117824,-1.0499043,1.1770492,2.595754,0.5224353
10.2479315,-11.458737,0.71643645,1.4114072,0.61436397,0.6481364
7.699027,-11.157032,0.86004126,0.9938239,-0.007749946,0.85692805
-0.44596672,-8.235756,-2.44766,0.34827423,0.92755145,1.2372271
-4.3459816,-6.823006,-1.1647891,0.038282536,-0.024794146,1.3576019
-3.6608448,-5.3240557,0.65420693,-0.10765856,-0.81202394,0.81964386
-1.7539585,-3.7724266,-0.15955466,-0.43789026,-1.0495776,0.08567726
-0.61366,-2.2878435,-0.24093097,-0.5976798,-1.5715567,-0.53750193
-0.8580103,-1.2725803,0.34784922,-0.6136588,-2.1755612,-1.1617464
-2.0126834,-1.334837,1.204692,-0.8821051,-2.5601213,-1.8307319
-1.7156312,-2.0340278,4.450164,-1.2379032,-2.303393,-2.1481805
-2.6355367,-5.3480005,9.572075,-1.2794485,-1.0442512,-1.5516328
-7.0577893,-8.77212,10.022036,-0.58702713,0.7176946,-0.24668494
-9.913329,-7.828692,3.780007,-0.5934187,0.9360736,0.533088
-8.011234,-7.091189,0.4100771,-1.3976926,-0.14197308,0.35199314
-1.2508904,-10.247126,-13.237181,-0.60939765,-0.88233125,0.45958477
3.444458,-14.715242,-8.37376,1.0087377,-1.8378725,1.1232439
8.834525,-25.337196,-2.3471386,1.5530874,0.93820417,1.2883598
10.070648,-24.388977,-5.827166,-0.33029854,4.065818,1.156267
0.9674202,-9.634137,-10.073086,-2.2744045,1.6306255,0.34027526
-0.9203022,-5.11813,-4.994257,-1.6821179,-2.4770308,-1.0861126
-1.1359055,-6.0328245,-6.2053266,-1.3486905,-3.1801047,-2.0512414
-3.6129422,-8.398581,-5.008618,-1.940977,-3.7212586,-1.9404539
-10.608055,-13.97774,11.807522,-3.0115666,-2.7593255,-0.998761
-11.345897,-17.090574,6.5659413,-3.3300805,2.934508,0.17835525
-5.1604924,-11.995104,-2.3854346,-1.355082,4.287393,0.52030486
-1.2508965,-9.95021,4.6081266,-0.8533429,1.1491264,-0.13057117
-0.6615828,-9.073827,6.4558434,-1.5947664,-0.5062931,-0.6621377
-0.12018089,-8.226177,7.097279,-1.1143326,0.19891135,-0.88584304
-1.0688336,-8.360269,5.847916,0.035086926,1.6956067,-0.3574723
-4.815531,-7.052877,5.522411,1.4550833,2.3741794,0.5788943
-8.590977,-5.6880183,3.7943645,2.3531003,1.5081203,0.9219092
-7.527335,-5.8939443,4.273048,2.6172857,-0.74810785,0.70566076
-0.6376302,-4.639232,1.4296694,2.8250122,-1.1635606,0.24866267
3.2240539,-3.4850879,-5.348485,3.002911,-1.2818048,0.088873126
2.5149598,-6.827795,-8.49822,2.8335342,-2.3385465,0.2816858
-1.3994284,-13.498841,-14.989166,2.990128,-3.589166,0.9325619
-6.410995,-36.624817,10.007671,3.9350166,-5.4469852,1.7815769
-7.7812705,-39.09114,18.00168,2.0132813,3.1869757,2.6646802
-0.54651785,-8.858322,-3.7879543,0.9778441,4.941464,2.4058208
4.455467,-1.8616253,-2.3901992,0.90327567,-0.029056035,1.3607974
4.7046094,-5.3049006,-1.9498103,0.5698482,0.37148303,0.5980687
0.6416962,-5.031929,-1.4615531,0.5719786,1.5720351,0.78129405
-3.2535257,-6.617081,1.4057596,0.049999546,0.7081062,0.6641151
-0.8771032,-10.505731,1.5493649,-0.6498786,-0.198433,-0.2754474
2.0311394,-10.529676,0.9414377,-0.67011863,-0.6064289,-0.78464335
1.6334734,-5.6592855,1.8413626,-0.31325534,-1.1816713,-0.93591076
0.34464908,-1.9238819,2.3200462,-0.16411847,-1.8463957,-1.3779951
0.5219236,-0.63564676,4.5554967,-0.1960764,-2.1159074,-1.9990437
-0.46026567,-2.5608158,6.8005214,-0.5731797,-1.1305386,-2.242989
-3.1097832,-7.0816116,7.705233,-1.0802451,1.0127716,-1.563351
-3.9961486,-12.186663,6.6281967,-1.3050158,2.971791,-0.59609175
-6.660039,-12.383011,3.1721036,-1.4126074,2.438094,0.44040963
-6.70795,-7.6802344,3.0284991,-1.5660055,0.86469984,0.72270447
-2.793561,-5.8269,-3.2087429,-1.5692012,1.3856137,0.14320111
0.56984305,-6.463834,-8.598715,-0.64242196,2.0791001,0.1666369
1.7293079,-9.1217165,-5.444193,-0.23655653,1.41118,1.1445489
-3.7326274,-19.379707,4.2395687,-1.1388347,1.8085233,2.3131428
-8.260284,-19.121103,-4.5873494,-0.08741966,4.173408,2.3962333
1.4993349,-6.7751174,0.95101595,1.2377682,1.7957401,0.5075212
5.389768,-3.5808685,-1.2700739,-0.7212515,0.26282588,-1.0690688
5.7970195,-4.141179,-3.0747094,-1.5297866,1.4868138,-1.389713
5.231662,-8.163921,-3.7161443,-0.8757147,2.158995,-1.041372
-1.7059549,-14.954692,-1.9306558,-0.14600922,2.2378244,-0.5609381
-7.052902,-16.721825,-5.6356635,-0.343083,2.6905615,-0.8709298
-10.167163,-12.569782,-3.8836827,-1.0578748,1.4708347,-1.1755953
-11.877611,-9.327643,-0.6286365,-1.7875804,1.2268894,-1.3545595
-12.050092,-10.864905,-1.8732125,-2.2573617,1.6529948,-1.4674774
-9.410154,-15.064839,2.9375541,-1.6299213,2.1856263,-1.2661426
-3.5122204,-14.676932,6.8962646,-0.67118424,3.639711,-0.8858435
0.37821293,-10.946318,7.4371767,-0.51991683,4.374743,-0.99130464
-0.5464823,-7.498253,4.1869183,-0.22909988,3.042098,-1.138311
-6.1138234,-5.304901,3.100308,0.5368245,1.0830786,-1.1031573
-9.592214,-6.5021453,3.693875,1.1024795,1.0383376,-0.7569467
-9.477225,-6.9954104,3.358797,1.8428376,2.3294368,0.31577367
-6.7797933,-3.5473456,0.35266703,2.516084,3.2008224,1.5365657
-3.1672482,-0.72663766,-1.9880935,2.7397895,1.9992052,2.0649364
-0.17276415,-3.322264,-2.8162153,2.7067661,-0.72786945,1.9626712
0.6273627,-12.588938,-3.093851,2.2913134,-3.1758451,2.1309826
-4.3698287,-25.581436,0.2617185,2.248703,-4.0972977,3.3549705
-13.5209675,-33.904675,6.0489984,2.4574945,-2.120169,4.5438046
-8.777706,-17.535952,-0.4323715,2.063347,2.0844262,3.219682
3.4493675,-10.256705,-1.2509193,1.6542858,2.3848305,1.4524099
6.410313,-11.281547,-0.5759758,1.6138059,0.07107813,1.771989
1.9305683,-9.4713125,1.4680018,1.250551,-0.6937811,1.6675931
-2.2090034,-6.5213017,1.6403282,0.5378896,-0.17819357,0.9101907
-1.5909412,-5.333635,1.4632156,0.0020620734,-0.41574737,0.43721366
-1.4615785,-5.553928,1.6786234,-0.34201807,-0.77900225,-0.021914914
-2.3096151,-6.0998716,2.013702,-0.60939926,-1.0431876,-0.47891298
-3.3064556,-5.525192,0.5249164,-0.8458842,-1.516161,-1.013674
-2.7171464,-3.8251042,0.5967176,-1.0195221,-1.9529189,-1.758293
-2.4009333,-2.1968515,3.5501914,-1.1654631,-1.3819377,-1.8520362
-3.1387782,-3.4467747,6.4270763,-1.1931598,0.30224395,-1.1372445
-5.5104127,-7.22049,8.533281,-0.16944157,2.060994,-0.20194305
-4.6288414,-6.736803,7.690798,0.9224536,2.0993435,0.24120659
1.5086455,-4.562607,-0.20747668,0.9853042,1.4974699,-0.41073468
2.7255988,-9.179182,-9.173214,0.37384298,0.8881391,-0.57478523
4.718723,-23.584427,-7.708445,-0.9183216,0.5717559,0.89101744
1.9062997,-35.81069,-16.047108,-1.9239303,3.1166704,2.8500369
-1.3421197,-15.7113495,5.1872783,-0.44108343,5.043732,1.9296494
1.6379851,-0.8032586,10.505447,0.97145605,5.789417,-0.6397662
1.2259398,-1.8568338,-13.500517,0.60820127,1.2695038,-2.2855985
1.5948557,-4.418937,-7.3925204,-1.2112689,-3.1364262,-2.7425966
0.07604954,-14.274655,-7.971729,-1.6075468,-3.27278,-2.4805417
-8.298924,-24.09206,-0.7388267,-1.1494834,-1.9752887,-1.669876
-16.899084,-20.653572,5.192057,-1.6672014,2.1664557,-1.1489621
-14.321438,-13.340803,-0.26971978,-2.1018288,4.6623683,-2.1236782
-5.1942577,-12.928951,5.948374,-1.5468265,4.3427896,-2.8203607
-2.0081327,-11.109139,3.5597434,-0.67117983,3.059147,-1.9372569
-3.7904534,-8.312376,4.0001307,-0.5966113,-1.0176165,-1.1862462
-5.4625773,-6.7703257,6.556298,-0.6637229,-2.1649053,-1.1766589
-6.0518956,-5.755062,2.2529342,0.22790277,-0.37419733,-0.8911681
-6.45915,-4.1172314,1.6593658,1.6244632,1.0521907,-0.085828945
-5.6925664,-1.9430349,2.4252577,2.4287372,2.3816395,0.8899525
-4.2360544,-0.8176249,-1.2462438,2.3797352,3.1294546,1.712336
-2.7699604,-2.4123547,-3.1370437,2.1059625,1.6966753,2.1629422
-1.7925655,-8.609293,-3.85507,1.901432,-0.78538877,2.2939699
-4.4181323,-19.485062,-3.1561937,1.6052889,-3.2216463,2.8958437
-8.830808,-29.082176,4.1245766,1.2686656,-4.2368426,4.0378065
-6.967045,-22.937916,-0.16921315,0.748817,-1.3819362,3.5903955
-0.2929464,-12.689503,-4.0896297,0.8873013,0.72835094,1.5781128
2.1505475,-10.117821,-1.8924754,1.0130025,0.38427088,1.4236497
0.44967645,-7.244434,1.0466383,0.91925937,-0.7065589,1.6068751
-1.6823999,-3.8634148,1.2046026,0.28223187,-1.4245465,0.7791653
-0.23067895,-3.0301325,0.8503756,-0.33668616,-2.0019195,-0.017651828
0.9910655,-3.145068,0.7354904,-0.740421,-1.8336076,-0.37664562
0.69400847,-3.365361,0.39083713,-1.0791748,-1.2732788,-0.61632985
-0.86791825,-2.8242064,-0.17879719,-1.3518821,-1.1017714,-1.0775889
-1.0691519,-2.623069,-0.94947845,-1.4626695,-0.94837344,-1.7476398
0.03281328,-2.6709588,-0.686204,-1.3785136,-0.49031,-1.9052987
-0.25945267,-2.1010704,-0.29368505,-1.3497515,0.15310921,-1.4110163
-1.232065,-1.7227414,1.6976358,-1.3369683,0.7613747,-0.9497572
-3.881588,-4.3471017,3.3730257,-0.87783957,1.8522048,-0.5023465
-3.9199219,-6.037611,1.5396677,0.17144506,2.7374387,0.38608325
2.6918917,-14.0687275,12.290892,1.6873151,2.5297124,1.0870266
1.1826681,-17.320442,-3.8359473,0.789298,2.200546,2.1533554
-1.4668548,-20.869078,-12.17461,-0.44534233,-0.1345116,2.1245933
0.36815977,-34.168068,-9.407822,0.4686538,0.9765583,0.8228414
1.5324103,-19.652676,-2.7972085,0.95547926,2.8247905,-0.19555055
1.1067424,-1.4258307,6.1974664,-0.6253814,2.590423,-0.9146069
1.2169498,-1.813738,-6.4924226,-2.283997,1.1736225,-2.1481822
1.5762984,-9.174398,-8.971998,-1.0163333,-1.7270902,-2.86617
-2.1368499,-16.879864,-4.3670626,0.5879533,-2.7540045,-2.8086457
-8.945095,-22.52607,4.407203,0.47503525,-1.5459957,-2.571092
-12.64387,-17.602999,1.4058629,-1.5106162,0.8604345,-2.3825405
-10.291394,-10.524891,3.488138,-2.9455261,1.6700346,-2.7873404
-5.557705,-8.566198,5.9054914,-2.8730884,3.3574119,-3.0238292
-5.3229265,-7.392899,0.9989914,-0.016051773,4.2916484,-2.2525785
-8.786935,-4.3997874,0.6782767,1.1834348,1.7073184,-1.1372474
-10.348846,-3.7532754,0.55382216,-0.4176564,-1.0975206,-1.038178
-8.394037,-5.2809596,3.5551689,-0.3430881,-1.1933944,-0.88478005
-6.228416,-2.8050578,2.3728247,0.9863606,0.5440502,0.4276245
-3.6124253,-0.14238581,2.3871882,1.7075438,1.5102443,1.513128
-0.3783734,-0.8607326,-0.32694265,1.789569,1.5475283,2.0212586
1.3368769,-6.660186,-4.3813863,1.7384363,-0.20056938,2.4953008
0.32595003,-18.450651,-4.7691164,1.5339056,-2.8914251,3.617023
-7.790285,-35.293484,6.2166657,1.4412274,-4.3923817,5.8434243
-12.974323,-36.083664,5.929459,0.86705035,0.071072415,6.23118
0.23494941,-19.20731,-0.4609586,0.6955427,4.880737,3.0226061
5.931664,-10.548837,-0.2646954,1.2015427,1.7733634,1.9754521
2.9611478,-10.16093,1.9420373,1.0151216,-2.64535,2.177852
-1.7485642,-8.18787,-1.1741874,0.57516754,-1.6866128,1.3394896
-3.176323,-5.525199,-1.4566073,0.0031209243,-1.6035225,0.65559036
-2.0935075,-4.7302284,0.48684955,-0.3654604,-2.5313673,0.18580909
0.70454764,-4.6440268,0.9033071,-0.7340417,-2.4099271,-0.58544177
2.731224,-3.8490562,-0.5806079,-1.0685346,-1.724963,-1.1415093
3.8954897,-2.7092795,-0.6619809,-1.1335158,-0.75770384,-1.5377874
3.310977,-0.33873534,-0.9252536,-1.2602823,0.7294039,-1.6560317
2.161106,1.8210938,-2.4426763,-1.5468383,1.9768275,-1.7082298
1.3801557,2.5969083,-0.39390913,-1.6554953,1.6412692,-1.9606972
-2.8791857,-1.0618713,8.447372,-0.43044242,0.018872749,-1.6155518
-10.798984,-7.637139,17.863075,1.4412254,-0.18672325,0.24546346
-7.5170193,-14.284241,5.733245,1.3112631,2.5531344,1.2404196
0.97773933,-13.565893,-18.61258,-0.07677534,0.6154199,0.66730773
3.7614212,-25.557495,-11.403608,0.4899447,-2.0562613,0.71524453
3.9818254,-38.128563,-8.469276,1.0428164,1.1278114,1.4992785
2.304926,-16.597317,5.9103703,0.6976708,3.827189,1.0998045
3.6656294,-1.5551368,1.9420896,-2.4597704,3.0026748,-0.53644025
4.149548,-1.6892283,-8.75169,-2.7079768,-1.3052509,-2.2547104
1.8833343,-8.781706,-5.415265,-0.19288988,-3.0544138,-3.6779027
-4.5559907,-19.791565,-3.5483978,1.0438809,-1.8368176,-3.9367619
-12.950115,-22.91398,7.4756794,-0.15454066,-0.48180258,-3.1271615
-14.535982,-15.184569,0.12789556,-2.8656366,1.873495,-2.530614
-10.046642,-8.733816,5.216301,-3.5601883,2.3155792,-2.842736
-5.375239,-9.51442,2.602694,-1.5297964,3.9539542,-2.9364796
-8.4176235,-7.1534534,3.2967877,0.6337538,3.0846992,-1.8168875
-10.932978,-4.193865,0.4773466,-0.41872668,1.0393931,-1.2139482
-8.738611,-4.6871295,2.0139227,-0.681847,-0.686334,-1.120205
-6.7598457,-3.23128,4.838157,0.45372385,0.024196638,-0.12098805
-5.098076,-1.804158,2.6312037,1.4689299,1.7179755,1.1775718
-2.2617068,-3.1546497,-0.65735143,1.7533554,1.7126492,2.1917026
0.009303823,-8.6571865,-1.4471802,1.642568,0.10942765,2.9256692
-1.7155232,-15.165407,-3.826237,1.4678649,-1.8602445,3.6223516
-5.52451,-22.36803,-3.424145,1.8300544,-4.3913107,4.431952
-10.186327,-31.811895,6.4941697,1.904623,-4.784393,4.863384
-5.773661,-26.87925,-0.9254213,0.92031956,-0.78219765,3.8993201
2.845653,-18.80503,-0.5376894,0.27796572,1.976835,2.6401787
5.432881,-14.4326935,0.04630269,-0.10979012,3.8389156,2.6380482
3.6170216,-11.300702,-2.3806226,-0.077832155,1.6945403,2.3205998
0.023637325,-8.398581,0.63029325,-0.34947428,-1.1763448,1.4300395
-1.2699842,-6.028036,-0.8679866,-0.7777102,-1.3947238,0.81857824
0.16736245,-3.3366306,-0.7961856,-1.0046113,-1.6727575,0.03028327
2.4767027,-1.4018831,-0.6956636,-1.3018197,-1.7899364,-0.8933002
4.3117166,-0.39140868,0.007999271,-1.489306,-1.1603656,-1.6357888
4.0865264,2.0461814,-0.0015758425,-1.570266,0.43966016,-2.0310018
3.0468373,4.747165,-1.1025486,-1.2858405,1.2641742,-2.354842
-0.8675558,2.5155015,4.3640122,0.288619,-1.0676876,-2.1950524
-7.1392055,-3.355786,10.615614,0.97251827,-2.257587,-0.55028516
-6.655302,-6.674548,-0.59514886,-0.4900885,0.5728184,0.86545
-2.8175778,-6.243541,-5.334114,-0.10765882,1.5635135,0.59167737
5.792154,-19.09237,21.318966,0.57197934,1.2109115,-0.03469759
4.076909,-35.758015,-1.5237987,-1.9484341,4.7784796,1.7272483
-6.343896,-26.089066,-38.099987,-0.723381,2.2623265,3.0865245
-2.5445008,-8.293223,-6.080866,2.8324687,-1.88794,0.23161836
2.3329072,-1.6844324,3.296537,1.919538,-1.0538386,-1.9106265
4.086471,-4.217802,1.8174044,-0.3302985,-0.25062987,-2.2621636
1.1494778,-15.519791,-7.593509,-1.95376,-0.26234773,-2.3569722
-3.2057028,-22.497332,-10.068302,-1.5095452,-1.517228,-2.4198227
-8.873666,-18.627836,7.3605514,-1.0355028,-1.6866049,-2.3995824
-9.779202,-14.269867,4.9958553,-2.7537727,2.2633922,-2.7351403
-4.8586726,-11.300701,7.719561,-3.114897,4.6794105,-2.9513888
-2.3001914,-11.425214,2.5689282,-0.040546443,5.8320255,-2.3484497
-6.760778,-7.5509305,-0.37976184,0.37916747,0.7368699,-1.2554892
-8.346662,-6.24354,1.3339226,-0.13109371,-2.588883,-1.5207399
-7.6231985,-5.079818,2.080667,0.5602623,-1.4053749,-1.4951736
-8.38021,-2.4027784,3.1194081,0.8382962,0.69852054,-0.5843732
-7.7765265,-1.5838633,-0.020755254,1.6841155,2.4604664,0.45638925
-6.0037975,-1.7131656,1.3387036,2.2977073,2.6064074,1.4950212
-1.8259004,-6.9427304,-4.4342175,2.1901157,1.5954727,2.2918384
-1.2988764,-15.582047,-6.7414722,2.0921116,-2.0285537,3.0971775
-6.094845,-27.482658,2.3247867,2.0154128,-5.462963,4.420235
-10.339829,-35.25996,4.3352547,1.6106126,-4.403026,5.333166
-1.4042972,-23.268356,-2.131757,1.4273874,-0.48072574,3.8801463
6.7694383,-11.990314,-2.3375921,1.109939,2.0311656,1.99463
6.606533,-6.7511706,-2.950308,0.657202,1.7424794,1.4715856
-0.22568376,-2.9439325,-1.825404,0.57837254,-0.031184316,1.0785035
-4.1113296,-2.613493,-1.0930202,0.14587565,-1.032532,0.61617905
-3.1195621,-4.921781,-0.28404707,-0.4613245,-2.1020565,0.09846098
-1.2893391,-6.3153734,-0.059067417,-1.0280446,-2.3854167,-0.28609914
-0.30236253,-4.0358195,-0.5760467,-1.2592068,-1.7398667,-0.5108697
0.6951591,-1.847265,-1.1741216,-1.0419044,-1.6461341,-1.0488322
1.7109015,-1.0475056,-0.8055315,-0.66373605,-2.2245724,-1.658163
1.7444535,-0.2046456,-0.16887882,-0.13643083,-2.7667916,-1.9244789
0.19212759,-1.5551376,2.5644062,0.17356068,-3.3548172,-1.7934515
-3.1329322,-5.113349,7.0161643,0.09153521,-2.277836,-1.1372494
-4.4552817,-5.0654593,-0.08749054,-0.12790926,1.018089,-0.085834235
-0.23424512,-3.6191876,-6.8752146,-0.32924426,1.479348,0.4744943
4.7869177,-8.470423,2.411244,-0.5476234,0.28518748,0.65771955
6.161998,-23.646696,-1.6575594,-1.0514933,2.3187754,1.545084
5.850586,-49.277306,-16.558964,-0.33989742,3.859146,2.964015
-2.078791,-24.302786,-1.7915826,1.0385534,3.6993568,2.6923728
-0.8043252,1.5337524,3.584034,-1.5553634,1.7200967,-0.6951654
2.846562,-3.7628574,-7.8134093,-1.4562942,-1.7792943,-3.5362234
2.1422734,-8.657194,-5.8843117,-0.2589381,-3.3111432,-4.0209184
-3.1136289,-16.530275,-1.8729424,-0.2994183,-2.970259,-3.3540633
-11.464628,-22.530865,1.1284052,-0.9939703,-1.1997913,-2.6051831
-15.115488,-17.421024,0.5492027,-2.4523163,0.52060914,-2.4496548
-11.972465,-12.301606,6.8869724,-3.4717736,1.7659019,-3.0589855
-6.3236585,-12.181883,5.7189894,-1.9559038,4.6229386,-3.1346192
-6.9033766,-11.525793,2.8660414,0.623099,4.293772,-1.7955831
-9.744528,-7.2636023,1.5448799,0.063835494,0.10515564,-0.68664384
-6.429023,-6.181293,4.665899,0.3003238,-1.6855526,-0.49702704
-3.324329,-4.0885096,1.9804897,1.0087239,-0.1664869,0.22948265
-2.4666958,-0.9134169,0.26202103,1.6308377,0.51528156,1.0326912
-2.0546408,0.1976259,-1.1213695,2.2135365,0.3981024,1.4619924
-1.3024126,-4.1411886,-5.8507557,2.3147364,-0.59259284,1.7336346
-3.0559683,-13.762246,-7.617092,2.0846395,-3.1321812,2.5059507
-10.573303,-23.594017,4.661136,2.043094,-5.079483,3.939795
-13.3617525,-25.74906,5.063234,1.1461418,-1.7526654,4.4095764
-2.5432706,-19.082802,-3.9886615,0.39193505,2.011976,3.001298
4.8926425,-14.734409,-1.5665206,0.19592637,2.7576602,2.1916976
4.298551,-13.019956,-3.11745,-0.028844409,1.2513772,2.4984932
-0.38720164,-10.864915,-0.7096695,-0.045888804,-1.514047,2.0787795
-1.1489842,-10.18488,-0.9681544,-0.19928694,-1.5641147,1.2063285
-1.2879143,-9.547947,-0.49425393,-0.49329987,-1.9018034,1.1285642
-0.3344571,-9.648516,1.13806,-0.77559483,-2.1244435,0.7141767
1.0885351,-5.984947,-0.10172562,-0.9311235,-1.8591932,0.087801695
1.6539072,-1.4545732,-1.2792822,-0.8789258,-1.9145871,-0.5321818
2.6169467,0.21199116,-1.6143565,-0.89064384,-1.6248355,-1.1702746
2.597796,1.117108,-2.5525715,-1.2155493,-0.48713428,-1.4440475
2.2815924,2.5681686,-2.1313262,-1.6597645,0.7783987,-1.5282032
3.27817,3.0758,0.63546675,-1.7034404,0.87853324,-1.7678877
2.0468526,0.9303374,10.400608,-0.95562565,-0.70231795,-1.6049025
-3.448608,-3.839485,4.283041,0.10750717,-0.6597076,-0.2530831
-2.2028894,-10.94154,-0.41762415,-0.2312468,0.64843583,0.9187067
-0.037265584,-30.686497,7.672126,0.22894685,3.1731102,1.8454859
-6.102876,-42.87445,-18.49748,1.2505344,5.375009,3.9025097
-3.5300026,-17.286936,5.5276337,1.1535953,2.728895,2.6806524
2.8853912,-4.1507697,-3.7205222,-1.1782668,3.6503477,-0.06346652
3.8244753,-2.5225167,-11.207123,-1.2847933,1.785071,-1.6123598
7.1684737,-10.309393,-10.666283,-0.5817163,-1.8400177,-3.105858
5.6353073,-17.344402,-8.378174,0.6965998,-3.7479048,-3.1921444
-2.3419862,-17.2582,3.0719318,1.5402884,-3.7756016,-2.7511253
-9.648516,-18.254307,7.9832244,-0.7585504,-1.2157736,-3.3881528
-10.122832,-17.96218,-3.4764493,-2.9657767,-0.11855223,-3.9431555
-10.285724,-12.033426,8.806564,-3.1479366,-0.266624,-3.8344986
-6.519852,-9.356387,4.900512,-1.8855995,3.0165184,-3.371109
-6.4623494,-6.8517523,2.645917,0.17781578,3.161394,-1.9447211
-9.116652,-3.892163,1.0519043,-0.0011486099,0.9658856,-0.89650184
-7.7367835,-3.1738164,3.3783073,0.9661106,0.24683258,-0.3127375
-6.6204314,-1.5168301,3.9527297,1.6308349,1.5070392,0.74933016
-5.2405653,-0.72664875,-0.44157946,1.6191169,2.2612457,1.7868968
-3.712172,-1.765857,-2.8685007,1.7522748,0.99997354,2.5006235
-2.1837795,-6.8325963,-5.482108,1.8928894,-1.0495936,2.5325813
-2.4904056,-14.667364,-6.870287,1.9429567,-3.4751987,2.943773
-8.316463,-28.588924,2.2677782,1.8556049,-5.727166,4.4308805
-13.610699,-37.386276,2.4113858,1.096072,-3.6509674,5.3171797
-2.2172818,-24.341103,-4.3428326,0.6294864,0.4854507,3.4433813
6.5936933,-13.431809,-3.189203,0.08407132,2.6181083,1.8891618
6.74702,-9.653306,-2.514257,-0.6957017,1.1523054,1.6750437
1.5965182,-7.776026,-1.1212862,-0.7883797,-1.2647777,1.1562604
-0.9619591,-9.006794,-0.398472,-0.83418614,-2.3609338,0.64919496
0.36520457,-9.581471,-0.072964825,-0.9822579,-2.7241888,0.23374215
2.3343854,-6.7511845,0.06106907,-1.0813276,-2.2011445,-0.25840965
3.330958,-2.2974346,-0.04423864,-1.0227382,-1.510854,-0.75162673
3.9729848,-0.1280275,-0.37452745,-0.87147087,-0.8983275,-1.266149
2.9285173,1.9312332,-2.2844708,-0.8586878,0.18717588,-1.6112945
1.4911746,4.292199,-2.8541014,-1.1303302,0.51527697,-1.8296735
-0.746294,5.5133886,7.466311,-0.87360173,-0.90045834,-1.730604
-8.412161,0.16888885,11.889347,0.31416696,-1.0410734,-0.21579935
-6.23696,-4.644035,-5.022528,-0.1833112,0.72513354,1.1232369
-1.1247699,-4.5051546,-6.8702426,-0.32392612,0.5973018,0.43507656
8.438418,-21.793364,28.26032,0.31629714,0.53658164,-0.4874417
9.3008375,-43.367718,3.8570528,-0.36760214,5.1853914,1.2308283
-2.8304005,-30.121399,-37.649567,0.74985915,2.8439422,3.0119488
-2.1308808,-5.8460684,-6.7505617,2.1187227,-2.2448215,0.7812871
0.48510844,1.2416195,-1.9924482,0.4675641,-1.9753102,-1.4493749
2.1907744,-3.068461,-3.4141347,-0.97160697,-2.2512136,-2.5679014
1.2996256,-13.024747,-4.7400846,-1.2432493,-2.0339,-2.8011944
-5.101372,-22.363255,-1.7961804,-0.9811946,-1.5257694,-2.4613752
-11.214899,-21.50124,6.0255065,-1.7077044,0.6761303,-2.4070468
-8.852842,-14.494965,0.5733068,-3.0616546,2.9941437,-2.913047
-4.1910224,-9.155253,9.629995,-3.2225094,3.3424847,-3.0802934
-2.6338825,-8.2645035,2.459324,-0.7436413,4.11267,-2.3953292
-5.5181594,-6.0663624,-0.40319917,0.46756318,-0.49139905,-1.0211391
-6.9219637,-5.257025,3.8762317,-0.049089726,-2.7018209,-0.8368486
-6.6967697,-4.7493935,3.4932873,0.8265568,-0.35398027,-0.842175
-6.2655554,-2.8433797,1.8370461,1.4337568,1.5219486,0.04518946
-3.8939161,-2.3213813,-0.6521041,1.7064642,1.875616,1.2073919
-1.1150273,-7.5413685,-3.9023604,2.0036728,0.6377798,2.1064742
-1.7045028,-15.941235,-5.865009,2.2124674,-1.865585,2.8905094
-6.265693,-24.843945,-0.36972374,2.2721221,-4.2858644,4.072952
-10.251944,-26.869682,5.159069,1.7299031,-3.5657458,4.513971
-2.8543677,-19.173794,-2.6578262,0.87982273,-0.34225845,3.0183408
4.1024203,-15.21331,-2.8923795,0.45904353,1.3866642,1.7911571
4.428226,-13.594636,-3.5050921,0.046786506,1.3749464,1.904075
1.0744106,-9.749085,-2.2605143,-0.144961,-0.31882286,1.5674518
-1.3163791,-7.8909626,-1.7626822,-0.40488538,-1.2871475,0.65452087
-0.51145643,-8.724244,-1.2457027,-0.58811074,-2.3651943,0.37755236
0.6528041,-8.551842,-0.32662928,-0.6680056,-2.7636027,0.15597752
1.4577265,-5.094199,-0.18780956,-0.7894457,-2.2160573,-0.30208582
1.4816879,-1.0954021,-0.4510837,-0.81181633,-1.7271016,-0.82939124
2.1093373,0.5807403,-0.91540474,-0.7692058,-1.2615815,-1.3279346
2.0518484,1.9503878,-1.4371679,-0.85868806,-0.665034,-1.4685495
1.2900578,4.0144377,0.6690399,-0.92579967,-0.78434354,-1.3023684
-2.336854,1.5720587,7.815782,-0.50928175,-0.97822165,-0.6387092
-7.8275323,-3.6622946,9.132162,0.10111415,0.39809877,0.9698387
-3.9131389,-6.142986,3.4214733,0.6412027,2.8151817,1.3671819
3.1825933,-10.697305,-6.999459,0.67529106,2.3422046,0.522428
7.1784368,-24.355469,-6.348448,0.15331185,0.013538441,0.64067215
10.335824,-45.652058,-8.923763,-0.2035515,0.82420385,1.7677209
4.0210648,-23.292316,3.6608214,-0.7479012,2.3454003,1.9669253
1.2901022,-2.3070142,-1.5041689,-2.760184,1.7435263,-0.12631766
2.411242,-3.6048274,-9.905058,-1.3881248,-1.2370812,-2.4145038
1.8842188,-10.285453,-6.3723736,0.77116436,-2.2639952,-3.5372915
-3.4291859,-20.150747,-0.3457507,0.8904738,-2.391827,-3.433961
-10.831542,-24.45604,4.465017,-0.899169,-1.5918142,-3.163384
-12.374294,-17.646112,2.9380193,-2.7910771,0.1733274,-3.1079903
-7.980783,-10.079527,5.412813,-2.9029298,2.0141027,-3.3146515
-2.796729,-8.56142,1.9710824,-0.8927777,3.494819,-2.8693714
-5.4654064,-6.444692,1.5259088,0.41536587,2.3123765,-1.3353919
-9.978686,-4.3758535,2.0716095,-0.2003565,0.35229138,-0.5215306
-9.331872,-4.950531,5.3362308,0.33866677,0.25961336,-0.33724007
-6.533821,-3.6000388,2.6651795,1.2420101,1.838334,0.596996
-4.023241,-1.8041722,-0.48455423,1.577568,1.6998495,1.6420195
-2.0732286,-1.9478415,-1.2217247,1.8449491,-0.006702704,2.0958219
-0.573586,-6.0088954,-2.394497,2.0569367,-1.4373517,1.9690553
-0.8179302,-13.082217,-5.261808,1.9802374,-2.659209,2.3195271
-4.507128,-25.461725,-0.58985806,1.8513405,-4.599054,3.7054348
-10.46734,-31.39048,5.264439,1.3378834,-3.5625527,4.8644414
-2.978732,-20.33273,-1.8248575,0.49419466,0.77946144,3.1440408
6.517377,-13.570692,-1.5903012,0.031870227,2.657521,1.5898213
6.7713146,-13.858031,-2.145572,0.031870157,0.6271286,1.9434888
2.363442,-11.420442,0.42974532,-0.059742577,-1.3212384,1.5898213
-0.33398288,-9.193566,-0.5898484,-0.48478281,-1.0932721,0.8132442
-0.96641207,-8.039422,-0.07765569,-0.6999661,-1.634426,0.6758252
0.08765143,-7.095994,1.2722325,-0.9204757,-1.7217777,0.19006498
0.8159152,-4.5338902,0.69781435,-1.1804001,-1.2285607,-0.3947647
1.4052348,-1.526412,0.12818295,-1.2198149,-0.9590492,-0.9156786
2.2053666,0.4227022,0.0276611,-1.2869266,-0.3134996,-1.3343272
0.74828917,1.9599692,-2.9116173,-1.7449827,0.49078152,-1.2171456
-1.7910377,3.2529933,0.8843391,-1.8536395,0.3682763,-0.78890955
-8.287873,-0.76974845,6.0253954,-0.801159,0.85510176,0.32109502
-10.017492,-4.586564,1.0949563,-0.23337351,1.3557757,1.5333649
-3.827303,-6.454266,-1.1835773,0.61457634,1.6348749,0.8473353
4.1595764,-21.960978,17.528147,0.697667,1.6039823,0.24652664
2.7988777,-37.00316,-6.688438,-1.3742706,1.7137045,2.065997
0.64763564,-23.44556,-18.813484,-0.016059455,-0.14304976,3.0534961
3.0000958,-5.6928186,0.64019924,1.5221812,0.80823064,0.7653101
5.5010824,-0.23817149,0.7694421,0.21297234,2.8279705,-1.1734694
6.737199,-4.8212237,-6.1188107,-1.4914492,1.3898648,-2.4975922
6.7419853,-15.99391,-10.910431,-1.519146,-1.1870077,-3.0057225
2.6742735,-20.754156,-10.2019825,0.11603358,-2.9659977,-2.4230235
-6.749968,-18.536858,8.758659,0.86810976,-3.327122,-2.3463244
-10.549374,-19.216892,2.5166278,-1.8206154,0.6005047,-3.326367
-10.386479,-16.616478,0.96090555,-2.9987967,1.2588376,-3.403066
-6.2756586,-11.243243,5.8195386,-2.1135626,2.6479414,-3.0493984
-3.549487,-7.661088,2.775112,-0.18969668,3.5022826,-2.231276
