Acceleration x,Acceleration y,Acceleration z,Rotation x, Rotation y, Rotation z
-7.4659576,-6.5337524,1.5188904,-0.33076477,-0.14620972,0.014984131
-7.4154816,-6.4355316,1.9608612,-0.20523071,-0.105285645,-0.0015106201
-7.25679,-6.3636627,1.9944916,-0.06350708,0.08470154,-0.015853882
-7.227936,-6.1623993,2.2442932,0.020477295,0.11555481,0.0287323
-7.441925,-6.10968,2.4364624,0.044311523,0.0382843,0.049194336
-7.590988,-5.834152,2.2731323,-0.019226074,-0.010284424,0.03881836
-7.4371033,-6.1743774,2.0929718,-0.09312439,-0.12971497,0.013168335
-7.4130707,-6.064163,2.1121979,-0.09098816,-0.1660614,-0.0033416748
-7.367386,-6.176773,2.5013123,-0.07266235,-0.19966125,-0.040298462
-7.5837708,-6.0689545,2.54216,-0.06930542,-0.10986328,-0.061676025
-7.783325,-5.9898834,2.1626282,-0.046401978,0.0572052,-0.09863281
-7.386627,-6.29657,2.2490997,-0.013717651,0.101486206,-0.14567566
-6.8360443,-6.636795,2.2635193,-0.011581421,0.09263611,-0.12185669
-7.5044403,-6.1791687,2.1121979,-0.022888184,0.0718689,-0.020446777
-8.620026,-5.520279,2.0137024,-0.02319336,0.004058838,0.07270813
-8.098297,-5.8437347,2.2683258,0.005218506,-0.085128784,0.14938354
-7.31691,-5.9779053,2.8039703,0.024765015,-0.0118255615,0.13960266
-6.8095856,-5.9946747,2.157837,-0.020736694,0.2444458,0.0934906
-6.2421875,-6.7062683,1.917633,-0.1138916,0.24627686,0.10142517
-6.8360443,-6.6391754,1.7206573,-0.115737915,0.052627563,0.158844
-7.6847534,-5.8053894,2.165039,-0.044265747,-0.10374451,0.14907837
-7.377014,-5.8317566,2.2923431,0.041259766,-0.06037903,0.17381287
-7.3096924,-6.078537,2.37883,0.10601807,0.1809082,0.01071167
-7.2615967,-6.2726135,2.3403778,0.09194946,0.3675232,-0.13772583
-7.163025,-6.7661743,2.0809631,-0.009765625,0.39501953,-0.16644287
-7.083679,-6.4163513,1.6269836,-0.018615723,0.35072327,-0.15177917
-7.3601685,-6.358856,1.9656677,-0.06655884,0.18916321,-0.16125488
-7.807373,-5.915619,1.9320374,-0.06655884,0.016586304,-0.23423767
-7.624649,-5.644882,1.8359528,-0.065338135,0.04347229,-0.36772156
-7.0163574,-6.648773,1.8863983,-0.05770874,0.07095337,-0.5445709
-6.6845703,-7.9377747,1.944046,-0.058914185,-0.0075531006,-0.5540314
-6.3407593,-7.475357,2.1242065,-0.092819214,-0.16972351,-0.2644806
-6.8961334,-6.1983337,1.5453033,-0.17529297,-0.072906494,0.13624573
-7.247177,-6.234268,1.6269836,-0.12062073,-0.105895996,0.21351624
-7.4010468,-6.466675,1.8431549,0.047668457,-0.0753479,0.19824219
-7.4563446,-6.7254333,1.8959961,0.17259216,0.079208374,0.16282654
-7.4755707,-6.526581,2.1217957,0.28071594,0.16105652,0.14112854
-7.5044403,-6.327713,2.0953674,0.25047302,0.2743683,0.08615112
-7.326523,-6.26062,2.0857697,0.17076111,0.27772522,-0.0012054443
-7.1269684,-6.758972,1.9512482,0.065078735,0.17816162,-0.14169312
-7.206299,-6.3708344,2.1602325,-0.10290527,-0.047546387,-0.12826538
-7.6006165,-6.052185,1.6678162,-0.275177,-0.14834595,-0.040603638
-7.2976685,-6.4499054,1.6822205,-0.22904968,-0.13093567,-0.13467407
-6.8769073,-6.69429,1.778305,-0.12123108,-0.025253296,-0.17529297
-6.9490356,-6.286972,1.7735138,-0.032043457,0.0049743652,-0.067489624
-7.4154816,-5.4699707,1.7470856,0.04949951,0.01109314,0.013458252
-7.4130707,-6.818878,2.0112915,0.08126831,-0.0035705566,-0.12857056
-7.1365814,-7.238159,1.6269836,0.091033936,0.14303589,-0.13925171
-6.973068,-6.8092957,1.7735138,0.19795227,0.20657349,-0.08366394
-7.0572357,-5.7598724,1.862381,0.22268677,0.13693237,-0.04701233
-7.1461945,-6.0234375,2.1770477,0.10481262,-0.035964966,-0.13375854
-7.1053314,-6.301346,1.7446747,-0.109298706,-0.095214844,-0.16217041
-6.88414,-7.082428,1.69664,-0.2210846,-0.11048889,-0.12489319
-6.963455,-7.12796,1.5693207,-0.15359497,-0.06283569,-0.029922485
-6.881729,-5.505905,1.7951202,-0.017990112,0.015045166,0.021408081
-6.7591095,-4.7823334,1.8551636,0.045547485,0.052612305,-0.09100342
-6.6725616,-4.5331573,1.8023376,-0.08609009,0.033065796,-0.33869934
-6.595627,-4.3702393,1.5092773,-0.19818115,9.918213E-4,-0.5045624
-6.4657745,-4.3966064,1.9920807,-0.24064636,-0.12789917,-0.6664429
-6.0570374,-5.5178986,1.4708557,-0.17558289,-0.059783936,-0.87138367
-6.0666656,-5.927597,1.4900513,-0.20123291,0.072784424,-1.1355896
-5.5209045,-5.7718506,1.3339233,-0.316391,0.44326782,-1.1413879
-4.8500977,-6.5217743,0.8559265,-0.19207764,0.3320923,-0.91322327
-4.256241,-6.1791687,0.3587036,-0.19728088,-0.021911621,-0.81427
-4.6457367,-7.2573395,1.6077576,-0.88023376,-0.35513306,-1.2470703
-5.8887634,-6.653549,1.1441803,-1.5763092,-0.63186646,-1.5983276
-6.268631,-4.339096,1.1537781,-1.5121765,-0.9855652,-1.1948395
-8.535873,-12.022827,-0.030410767,-1.1154022,-0.98709106,-0.514328
-9.002304,-14.344482,2.5469666,-0.5955658,-0.9415741,-0.03968811
-7.0908966,-12.185745,1.2066193,-0.21957397,-0.23052979,-0.4159851
-5.270859,-8.951248,0.07046509,-0.18719482,0.29544067,-1.1673584
-4.470215,-8.517593,-0.104888916,-0.43275452,-0.32063293,-1.5210419
-3.5638123,-9.437622,1.3771667,-0.9892578,-1.1208649,-1.6948395
-3.330597,-8.354675,1.1777954,-0.9058838,-0.95684814,-1.5769348
-2.8377075,-7.1974335,0.21939087,-0.5442505,-0.61872864,-1.3744354
-3.4003143,-9.106995,0.28904724,-0.35090637,-0.6657715,-1.16185
-4.073517,-10.99498,0.9328003,-0.34725952,-0.7540283,-1.0995483
-3.2921143,-10.511002,0.4860077,-0.3955078,-0.73417664,-1.0894623
-2.9386902,-10.367249,0.6013031,-0.45202637,-0.8927002,-1.3707733
-2.7391357,-9.20282,1.0769196,-0.33869934,-0.93392944,-1.5421143
-1.9216766,-8.658951,0.51724243,-0.1084137,-0.6223755,-1.4333801
-1.625946,-8.639786,0.3635254,-0.08457947,-0.473938,-1.3408356
-1.6067047,-9.394501,0.84632874,-0.17193604,-0.61169434,-1.3460236
-1.8952332,-10.841644,1.2114258,-0.22721863,-0.61535645,-1.4068146
-1.5706482,-11.3519745,1.4179993,-0.23608398,-0.49012756,-1.4233093
-0.9575653,-9.785034,0.71180725,-0.20675659,-0.26348877,-1.3759613
-0.039123535,-9.516678,-0.7654419,-0.18598938,-0.20149231,-1.2418823
-0.99842834,-8.5104065,0.15933228,-0.33137512,-0.6752167,-1.1981964
-0.3083954,-8.587067,0.54125977,-0.39796448,-0.8734436,-1.0192108
-1.4239807,-10.10849,0.9351959,-0.49996948,-0.9122467,-0.975235
-0.8373413,-11.637085,0.5845032,-0.33320618,-0.8868866,-0.8756561
-0.51756287,-12.463684,0.34188843,-0.35214233,-0.7683716,-0.72325134
-0.3877411,-11.56041,0.9568176,-0.29197693,-0.8783264,-0.59832764
1.004364,-12.50441,0.36831665,-0.13131714,-0.7140198,-0.4025421
1.7304382,-12.030029,0.8175049,-0.016174316,-0.47546387,-0.21684265
1.5164642,-12.662537,1.5188904,0.11608887,-0.35298157,-0.03388977
1.2303467,-12.018051,1.4084015,0.2697296,-0.03656006,0.14602661
0.9298096,-11.716156,0.7814789,0.4273224,0.30981445,0.30697632
0.7566986,-9.782639,0.06086731,0.53178406,0.562088,0.477417
0.57398987,-7.0345154,-0.81347656,0.5519409,0.6931305,0.60935974
-0.5969238,-6.773346,-0.3282776,0.33538818,0.68029785,0.66130066
-1.6884613,-8.476852,1.2882996,0.14053345,0.24017334,0.71717834
-2.1573029,-10.000656,1.1537781,0.04095459,0.1561737,0.7889557
-1.625946,-9.667633,0.34910583,-0.03326416,0.25604248,0.7947693
-1.2749329,-8.833847,0.25541687,-0.055267334,0.21176147,0.62677
-0.9743805,-9.102188,0.65896606,-0.05557251,0.09631348,0.36593628
-0.99842834,-9.480743,0.6565552,-0.076034546,0.08744812,0.18603516
-0.96235657,-9.5142975,0.80789185,-0.06930542,0.03765869,0.137146
-1.3254242,-9.545441,0.8246918,-0.07237244,-0.04876709,0.101119995
-1.1643219,-9.401688,0.6301422,0.0030822754,0.03643799,0.06538391
-0.8733978,-10.142014,0.5868988,0.020187378,0.212677,0.15090942
-1.3206024,-10.436722,0.55326843,0.0039978027,0.21572876,0.24833679
-1.0946045,-10.369644,0.43075562,-0.04396057,0.045303345,0.33203125
-1.5417938,-9.830551,1.4708557,-0.11299133,-0.21707153,0.4798584
-2.832901,-8.414566,0.31066895,-0.07298279,0.31988525,0.38609314
-1.9673615,-8.747589,0.41874695,0.035446167,0.25024414,0.3060608
-2.0514984,-9.86171,0.9496155,0.0030822754,-0.117492676,0.15609741
-0.7003021,-10.614029,1.1681976,0.015304565,-0.28427124,0.21443176
-1.1378784,-8.503204,0.12571716,-0.018920898,-0.12023926,0.48902893
-2.1933594,-9.313034,0.20257568,-0.054351807,-0.25280762,0.3915863
-2.4722595,-11.028519,0.89675903,-0.010986328,0.03277588,0.014678955
-1.5249786,-9.217209,0.55807495,0.024154663,0.33699036,-0.05647278
-1.563446,-7.8131866,0.6613617,0.029037476,0.10668945,-0.048843384
-1.7004852,-8.726028,0.6301422,0.008575439,-0.05091858,0.113342285
-2.4530182,-10.139633,0.20498657,0.056228638,-0.031066895,0.23062134
-3.4724426,-10.130051,0.07046509,0.06263733,-0.08206177,0.24040222
-5.1650543,-9.392105,0.6301575,-0.009140015,-0.1843872,0.2495575
-0.9190979,-9.12854,0.0056152344,-0.0619812,-0.14041138,0.59654236
-2.7679749,-10.968628,-0.64533997,-0.099853516,-0.4675293,0.38456726
-5.879135,-10.942261,0.28425598,-0.23822021,-1.4146729,0.22055054
-3.123825,-10.623596,1.3315277,-0.33747864,-1.2066803,0.6954956
-1.7750092,-10.467865,-0.15292358,-0.16461182,0.06515503,0.8005676
-1.3013763,-9.629303,-1.032074,-0.14077759,0.040405273,0.71473694
-3.7104645,-4.358261,-1.1209412,-0.49569702,-0.9504242,0.49879456
-4.6168823,-6.0354156,-3.1722717,-0.90345764,-2.32518,-0.9697418
-0.4189911,-11.75209,-5.5238495,-1.3979492,-4.2381287,-2.7507324
5.8417664,-12.832657,2.109787,-2.4672852,-5.8080597,-2.7601929
4.7550354,-7.7413177,1.1009369,-0.6685791,-4.372513,-0.6526947
-0.55363464,-7.087219,5.3909607,0.3521881,-2.9980621,0.6050873
-0.7628174,-11.474167,2.0497437,-0.42697144,-1.6086273,-0.123062134
0.8384552,-10.84642,-0.5252533,-0.17803955,-0.29190063,-0.105651855
-1.0320892,-8.65654,0.5100403,-0.41108704,0.1696167,-0.42544556
-1.1595154,-9.576584,-1.2602539,-0.4559784,0.7206116,-0.7113342
-0.71473694,-12.1857605,-2.8744202,-0.34268188,0.91944885,-0.6954498
0.2181549,-10.779358,1.1465759,-0.15635681,0.0022277832,-0.22935486
-0.13529968,-9.71315,3.4236908,-0.15208435,0.071258545,-0.16522217
0.11236572,-9.351364,0.9880371,0.025375366,1.4930573,-0.21440125
-1.1426849,-10.118057,-2.031311,0.14173889,2.2209167,-0.1603241
-1.1378784,-9.741898,-1.4019928,-0.04273987,1.233139,-0.21836853
-1.1378784,-9.9767,-0.71499634,-0.0036468506,0.704422,-0.27578735
-0.3564911,-8.651764,-0.35708618,0.041870117,0.17236328,-0.21438599
-0.32763672,-7.2621307,0.33468628,-0.09312439,-0.26808167,-0.18751526
0.71824646,-8.646973,-0.12409973,-0.06686401,-0.26991272,-0.27334595
0.20611572,-8.321121,-0.16253662,-0.07817078,-0.14682007,-0.33137512
1.4154816,-8.237274,-2.1225739,-0.0980072,0.2062378,-0.4871521
1.4683838,-8.922501,-0.6717682,-0.2268982,-0.008483887,-0.85183716
1.4852142,-9.8089905,0.43318176,-0.4953766,-0.14897156,-1.2702789
-0.10884094,-12.046783,-0.33306885,-0.54852295,0.044067383,-1.5164642
-0.18818665,-10.508606,-0.63334656,-0.5949402,0.16744995,-1.2397461
1.0836945,-9.097412,-1.8703766,-0.67741394,0.06086731,-0.9495697
-0.37812805,-12.039612,-0.35710144,-0.60624695,-0.52404785,-0.9810333
-0.15452576,-13.201614,-1.5341034,-0.523468,-0.03718567,-0.7589874
0.6797638,-13.517883,-1.0608826,-0.3618927,-0.34872437,-0.46453857
2.0598297,-12.130646,-1.3010864,-0.21315002,-0.39057922,-0.14109802
2.0934906,-12.856613,-1.0416718,0.08647156,-0.14225769,0.12310791
2.4709625,-13.56102,-1.2458496,0.4178772,0.06636047,0.47558594
4.214081,-11.098007,0.47399902,0.80332947,0.35835266,0.7400818
3.2379456,-11.380722,-0.042434692,0.72758484,0.7093048,0.5644684
1.5116577,-12.533157,-0.7174072,0.49240112,0.6585846,0.49421692
1.4275055,-9.602951,-0.82069397,0.47773743,0.71907043,0.7110748
0.49945068,-4.8230743,-2.2859344,0.42947388,0.9863281,1.0128479
-1.77742,-2.211502,-0.7822571,0.32807922,1.1039276,1.1838837
-2.909851,-5.3717194,0.7766571,0.121902466,0.055358887,0.8769226
-3.2200012,-9.018341,-0.3090515,0.069992065,0.20074463,0.46183777
-2.111618,-9.931198,0.1857605,0.19367981,0.25726318,0.085235596
0.45137024,-10.633194,0.49801636,0.2230072,-0.040542603,0.15058899
1.593399,-10.832062,-0.6285248,0.06387329,0.060546875,0.062332153
1.196701,-10.499023,-0.35229492,0.0079956055,-0.171875,-0.018920898
0.3600006,-9.717941,-0.05204773,-0.025619507,-0.28457642,0.058670044
0.26623535,-9.86171,-0.01600647,0.0027923584,-0.08634949,0.025680542
0.34558105,-9.775436,-0.22499084,0.055618286,0.09295654,0.0055236816
0.37202454,-9.744308,-0.2538147,-0.012802124,-0.079330444,-0.004257202
0.20370483,-9.892853,-0.12168884,0.07852173,0.01322937,0.006439209
-0.067977905,-9.773056,-0.107299805,0.07058716,0.06851196,0.0113220215
-0.1328888,-9.789825,-0.1505127,0.037597656,0.059951782,0.023849487
-0.1304779,-9.873688,-0.09046936,0.013458252,0.046829224,0.029953003
-0.14491272,-9.926392,0.053649902,-0.0024261475,0.018417358,0.03300476
-0.07519531,-9.904831,0.18336487,0.0024719238,-0.010284424,0.03514099
-0.017486572,-9.904831,0.23860168,0.020492554,-0.017623901,0.028427124
-0.0030517578,-9.916794,0.24101257,0.04309082,-0.020980835,0.017120361
-0.048736572,-9.909622,0.19537354,0.062942505,-0.014862061,0.0067443848
-0.048736572,-9.923996,0.15933228,0.070877075,-0.0032653809,-0.0024108887
-0.043930054,-9.854523,0.18817139,0.075149536,0.0025482178,-0.011276245
-0.099227905,-9.854523,0.25782776,0.080963135,-0.0050964355,-0.018295288
-0.14250183,-9.856903,0.34429932,0.088897705,-0.009674072,-0.026550293
-0.18818665,-9.7634735,0.3394928,0.09135437,0.011703491,-0.029907227
-0.2723236,-9.77066,0.30586243,0.08035278,0.029724121,-0.0289917
-0.3516693,-9.811386,0.35630798,0.060806274,0.018417358,-0.02166748
-0.32281494,-9.842529,0.34669495,0.044921875,0.0049743652,-0.009750366
-0.16654968,-9.856903,0.38032532,0.044921875,-0.014877319,-8.8500977E-4
-0.05354309,-9.828171,0.36831665,0.050109863,-0.014572144,0.0027770996
-0.048736572,-9.844925,0.37791443,0.051940918,-0.010284424,-0.0015106201
0.0017547607,-9.842545,0.3226776,0.06263733,0.0034637451,-0.0149383545
0.018569946,-9.885666,0.26023865,0.0617218,0.0068206787,-0.027770996
0.052246094,-9.849731,0.2818451,0.06355286,0.010482788,-0.037857056
0.1315918,-9.8089905,0.36831665,0.06782532,0.022079468,-0.0460968
0.109954834,-9.820969,0.3947296,0.06538391,0.046218872,-0.05281067
0.025802612,-9.885666,0.3683319,0.061416626,0.064834595,-0.056488037
0.06427002,-9.852127,0.4187622,0.062026978,0.0743103,-0.054641724
0.06906128,-9.8089905,0.36590576,0.06965637,0.099365234,-0.054031372
0.081100464,-9.830551,0.3635254,0.07821655,0.09631348,-0.0619812
0.042617798,-9.852127,0.43797302,0.078826904,0.08163452,-0.069610596
0.0017547607,-9.876083,0.5556793,0.07423401,0.091415405,-0.07266235
0.018585205,-9.866501,0.57728577,0.07118225,0.121658325,-0.06686401
-0.007873535,-9.782639,0.56288147,0.06629944,0.12776184,-0.05923462
-0.043930054,-9.773056,0.5724945,0.06355286,0.11065674,-0.053726196
-0.06074524,-9.816177,0.62294006,0.06782532,0.08226013,-0.05067444
-0.012664795,-9.801819,0.70939636,0.066604614,0.06300354,-0.047317505
0.07147217,-9.811386,0.75505066,0.060806274,0.05293274,-0.04121399
0.16764832,-9.8089905,0.7358246,0.050720215,0.0413208,-0.034484863
0.2109375,-9.818573,0.6805725,0.044921875,0.018722534,-0.031433105
0.22776794,-9.77066,0.5845032,0.045532227,0.0025482178,-0.032043457
0.26382446,-9.756287,0.5700836,0.047058105,-0.007843018,-0.030822754
0.36239624,-9.844925,0.61331177,0.05041504,-0.011810303,-0.028381348
0.4633789,-9.933594,0.65415955,0.048583984,-5.187988E-4,-0.025024414
0.5739746,-9.890457,0.63974,0.038497925,0.014450073,-0.022277832
0.5739746,-9.773056,0.55088806,0.030563354,0.03491211,-0.024108887
0.46098328,-9.737106,0.55326843,0.02659607,0.04560852,-0.032348633
0.3239441,-9.75148,0.59651184,0.026901245,0.0471344,-0.038146973
0.2734375,-9.816193,0.7046051,0.026290894,0.04071045,-0.036315918
0.36720276,-9.842529,0.7334137,0.01927185,0.03857422,-0.02746582
0.4393463,-9.847321,0.70700073,0.007965088,0.035827637,-0.016159058
0.41290283,-9.8281555,0.71661377,0.0055389404,0.026351929,-0.008834839
0.33355713,-9.799408,0.7334137,0.006149292,0.024505615,-0.0066986084
0.30229187,-9.804199,0.7238159,0.007369995,0.026046753,-0.0048675537
0.30711365,-9.782639,0.7238159,0.0070648193,0.023590088,-0.0048675537
0.29026794,-9.801804,0.71902466,0.006454468,0.011688232,-0.004547119
0.2806549,-9.866486,0.7262268,0.005218506,-0.001449585,-0.0018157959
0.26623535,-9.8688965,0.71180725,6.5612793E-4,-0.0032806396,0.0043029785
0.2830658,-9.818573,0.6661682,-0.002090454,0.005264282,0.011016846
0.29508972,-9.816193,0.6541748,-0.0036315918,0.008026123,0.012237549
0.2975006,-9.840149,0.649353,-2.593994E-4,-0.006942749,0.010406494
0.26623535,-9.847321,0.6373291,9.613037E-4,-0.016418457,0.007659912
0.23738098,-9.849731,0.61813354,0.0037078857,-0.024963379,0.008270264
0.2494049,-9.866486,0.5820923,0.0067596436,-0.0234375,0.012237549
0.30950928,-9.90004,0.5508728,0.009811401,-0.022827148,0.017425537
0.32392883,-9.943176,0.51724243,0.01499939,-0.026489258,0.019882202
0.4393463,-9.983887,0.4403839,0.01928711,-0.0393219,0.01864624
0.41290283,-9.768265,0.19778442,0.027526855,-0.04573059,0.016830444
0.36480713,-9.756287,-0.037628174,0.028137207,-0.08299255,0.007965088
0.3936615,-9.940765,-0.34269714,0.028442383,-0.14988708,-0.02746582
0.47540283,-10.08931,-0.28744507,-0.019195557,-0.2341919,-0.07115173
0.34317017,-10.187546,0.123306274,-0.025619507,-0.34353638,-0.09893799
0.3864441,-9.935974,0.19776917,4.5776367E-5,-0.2967987,-0.07511902
0.3191223,-9.775452,-0.071258545,0.034866333,-0.16882324,-0.03541565
-0.012664795,-9.926392,-0.23939514,0.09197998,-0.171875,-0.016174316
-0.0054626465,-10.127655,0.02722168,0.11946106,-0.24914551,0.010101318
0.30470276,-10.37442,0.18334961,0.16526794,-0.24885559,0.031784058
0.67497253,-10.292969,8.087158E-4,0.25720215,-0.21278381,0.034225464
0.86009216,-10.091705,0.06565857,0.3460846,-0.25524902,0.03300476
0.8312378,-10.031815,0.10890198,0.43740845,-0.29891968,0.033920288
0.7999878,-10.134842,0.10650635,0.55163574,-0.27877808,0.020187378
0.9610748,-10.036606,-0.011184692,0.6903076,-0.21156311,-0.014038086
1.1029205,-10.376816,-0.5588684,0.83203125,-0.14193726,-0.09436035
1.4924164,-10.491821,-0.3474884,0.90045166,-0.18927002,-0.18782043
1.196701,-9.435226,-0.0063934326,0.92152405,-0.22592163,-0.25593567
0.96347046,-8.287582,0.123306274,0.92427063,-0.2809143,-0.26142883
1.3313446,-7.7149506,0.98083496,0.91082764,-0.5472412,-0.22935486
1.9612579,-8.059967,1.9248352,0.98168945,-0.6929321,-0.1856842
2.2425537,-9.420853,3.1282501,1.1444855,-0.69996643,-0.24554443
2.6849518,-10.144424,4.0770416,1.23703,-0.50112915,-0.2876892
2.8292084,-9.507111,3.2459412,1.1371613,0.21328735,-0.22264099
1.7472839,-8.443314,2.6694489,1.0931702,0.5862274,-0.25105286
0.7062073,-7.3435974,1.8551636,1.3008728,0.8650818,-0.3881836
0.23979187,-7.350769,2.49411,1.487793,0.78842163,-0.5146332
-0.3564911,-7.5328674,3.937729,1.524765,0.4051056,-0.58335876
-0.85417175,-8.007248,4.706375,1.5644531,0.18304443,-0.5876465
-1.7437592,-8.016846,5.1243286,1.6463165,0.06239319,-0.5940552
-0.9022522,-7.7676697,5.0330505,1.6982422,0.19648743,-0.5063782
0.07388306,-7.5184937,5.174759,1.7122955,0.32232666,-0.34024048
0.34558105,-7.5256653,5.292465,1.7159576,0.18855286,-0.1979065
0.70381165,-6.354065,5.1915894,1.5476532,0.28720093,-0.09161377
1.3000793,-5.2998505,5.623947,1.4315948,0.27223206,-0.11665344
0.8216095,-5.8437347,5.38855,1.6060028,0.17938232,-0.35916138
0.5355072,-6.8164825,5.568695,1.9181671,0.053222656,-0.5216675
0.39605713,-7.1638947,5.919388,1.9410858,0.04069519,-0.4282074
0.34796143,-6.0953064,7.233307,1.7391815,0.25846863,-0.2687683
0.6821747,-4.7895203,6.8513794,1.7758331,0.4402008,-0.27426147
1.0644531,-4.856613,6.296509,1.8909912,0.34552002,-0.42666626
0.8769226,-6.6511536,8.086014,1.8717499,0.30581665,-0.47859192
0.23738098,-7.549637,7.845825,1.8372345,0.40875244,-0.40071106
1.1822662,-6.2678223,8.323822,1.6558075,0.4264679,-0.24310303
1.7689056,-4.4948273,7.8698425,1.6368561,0.39744568,-0.22782898
1.2543945,-4.327118,7.6776733,1.6469421,0.36965942,-0.3527527
1.1630249,-5.402878,7.9803467,1.7416382,0.39378357,-0.4807434
1.4972382,-5.8317566,8.515991,1.8189087,0.3895111,-0.5522003
1.4779968,-5.2567444,9.183746,1.8711395,0.35591125,-0.5424347
1.333725,-4.233673,9.78186,1.8592224,0.3140564,-0.43278503
1.2087097,-3.7065582,10.005234,1.799057,0.28871155,-0.37199402
1.0380096,-3.5148926,10.079697,1.7327728,0.28993225,-0.38787842
0.95625305,-3.584381,9.736206,1.7208557,0.306427,-0.40467834
1.6871643,-3.6011505,10.219025,1.6854248,0.28108215,-0.3646698
1.6607208,-2.9446564,10.161362,1.6613007,0.27526855,-0.29075623
0.7591095,-2.2809906,10.346329,1.5562286,0.29084778,-0.20217896
0.44895935,-1.9096222,11.292725,1.427948,0.28015137,-0.1343689
0.8023834,-0.97520447,11.713074,1.322876,0.25144958,-0.032669067
1.1437988,-1.0087585,12.6618805,1.1225128,0.2841339,0.044006348
0.7254486,-0.57987976,14.376907,0.9120636,0.31376648,0.106933594
0.06665039,-0.92729187,14.79007,0.6952057,0.37850952,0.20375061
0.028198242,-1.3370056,13.11586,0.37846375,0.3678131,0.26879883
0.040222168,-1.044693,11.05011,-0.0066986084,0.18457031,0.39616394
0.3191223,-0.7619629,8.6409,-0.25502014,0.1842804,0.4786377
0.06185913,-0.52957153,8.405487,-0.24554443,0.3143921,0.5461426
1.3818207,-0.009643555,8.881088,-0.18629456,0.35409546,0.55773926
1.0572357,0.07899475,9.539246,-0.063812256,0.37669373,0.45817566
0.46818542,-0.23008728,9.010788,-5.79834E-4,0.41090393,0.35646057
0.31192017,-0.34986877,9.342285,0.019561768,0.39562988,0.30239868
0.5355072,-0.69488525,9.755417,0.03086853,0.45793152,0.2913971
0.41290283,-0.83384705,10.046066,0.09011841,0.51138306,0.24620056
0.09552002,-0.22529602,10.243042,0.12617493,0.5718689,0.2260437
-0.24829102,-0.20133972,10.677811,0.05316162,0.54927063,0.21565247
-0.67144775,-0.4912262,10.733063,0.052246094,0.50161743,0.19732666
-0.59210205,-0.690094,10.312698,0.09776306,0.43441772,0.21382141
-0.22424316,-0.43373108,10.202194,0.11669922,0.38311768,0.26239014
-0.37332153,0.22994995,9.496002,0.158844,0.42770386,0.24131775
-0.56085205,0.29942322,9.351883,0.13471985,0.40722656,0.18695068
-0.916687,0.17243958,8.475159,0.036376953,0.34980774,0.11393738
-1.1426849,0.4048462,8.90271,-0.2003479,0.21298218,0.04949951
-1.4504395,0.27786255,10.733063,-0.40101624,0.29942322,0.019256592
-1.5129547,-0.8074951,12.299179,-0.123062134,0.32476807,0.011932373
-1.9865875,-0.31393433,11.122177,0.23368835,0.2532959,-0.047927856
-1.9914093,0.019104004,8.609665,0.3314209,0.23986816,-0.06350708
-1.66922,-0.3786316,8.972382,0.13502502,0.1378479,-0.032348633
-1.4913025,-0.72125244,9.464783,-0.010360718,0.10394287,-0.013717651
-1.2172241,-0.78593445,9.762634,-0.056488037,0.14852905,-0.0027160645
-1.2436676,-1.0015717,10.564911,-0.05831909,0.06361389,-0.022277832
-1.2629089,-1.2866821,10.5312805,0.004928589,0.044662476,-0.039993286
-1.2508698,-1.3777161,9.887527,0.059295654,0.06819153,-0.022888184
-1.2701111,-1.3921204,9.476791,0.044326782,0.08345032,0.017730713
-1.303772,-1.3034515,9.560852,-0.0014953613,0.06239319,0.06355286
-1.291748,-1.2627258,9.885132,-0.030807495,0.030319214,0.09593201
-1.2701111,-1.1788635,10.053268,-0.0149383545,0.017181396,0.10935974
-1.2773438,-1.0231323,9.983627,0.016525269,0.02696228,0.115478516
-1.3181915,-0.9129181,9.887527,0.014694214,0.044677734,0.120666504
-1.3638916,-0.8410492,9.925964,0.014083862,0.03703308,0.12921143
-1.3879242,-0.9368744,9.949982,0.011947632,0.012283325,0.12983704
-1.3254242,-0.90093994,9.803467,0.01133728,-0.00541687,0.13258362
-1.2412567,-0.7907257,9.777054,0.016525269,-0.010910034,0.13838196
-1.1763458,-0.7188568,9.729004,0.017745972,-0.006942749,0.12768555
-1.0320892,-0.67092896,9.796265,0.006149292,-0.033218384,0.106918335
-1.121048,-0.63739014,9.839493,-0.0036315918,-0.046951294,0.088897705
-1.0633545,-0.72125244,9.873123,-0.0018005371,-0.044815063,0.07148743
-1.1499023,-0.7284241,9.839493,0.005844116,-0.03504944,0.05897522
-1.0825958,-0.79074097,9.849106,0.001876831,-0.031677246,0.048583984
-1.0633545,-0.75479126,9.8611145,0.0015716553,-0.026184082,0.039413452
-0.99842834,-0.7835388,9.796265,-2.593994E-4,-0.018249512,0.029037476
-0.9431305,-0.8218689,9.817886,-0.003326416,-0.01977539,0.024154663
-0.95996094,-0.8410492,9.858704,-0.00881958,-0.019470215,0.02079773
-1.0296936,-0.8218689,9.889938,-0.0066833496,-0.008163452,0.016815186
-1.0657501,-0.8122864,9.906754,-8.8500977E-4,-0.0063323975,0.011627197
-1.1282654,-0.814682,9.882736,0.0043182373,0.008636475,0.009185791
-1.152298,-0.7883301,9.851501,-5.79834E-4,0.011688232,0.00491333
-1.1931763,-0.79551697,9.803467,9.460449E-4,0.014450073,3.0517578E-5
-1.2003937,-0.8242645,9.832291,0.006134033,0.0043792725,-0.004257202
-1.2003784,-0.7595825,9.822678,0.009796143,0.010482788,-0.0054779053
-1.1763458,-0.76916504,9.834686,0.0067443848,0.018722534,-0.0027313232
-1.1907654,-0.7667694,9.868332,0.0012512207,0.018432617,-9.0026855E-4
-1.2076111,-0.8122864,9.887527,9.3078613E-4,0.014755249,-0.003036499
-1.2220306,-0.8578186,9.827484,0.0030822754,0.0098724365,-0.0051727295
-1.2460785,-0.8482208,9.81308,0.0015563965,0.010482788,-0.006088257
-1.2388611,-0.84103394,9.827484,0.006134033,0.01322937,-0.004257202
-1.2196198,-0.8122864,9.865921,0.008270264,0.01689148,-0.0024261475
-1.2052002,-0.8314514,9.829895,0.0073547363,0.02116394,6.4086914E-4
-1.1883698,-0.8410492,9.841904,0.003692627,0.017501831,3.3569336E-4
-1.1955872,-0.8434448,9.875519,0.0012512207,0.010787964,6.4086914E-4
-1.1907654,-0.8122864,9.856323,6.4086914E-4,0.010482788,0.0012512207
-1.2172241,-0.82907104,9.815475,0.002166748,0.009567261,3.3569336E-4
-1.2292328,-0.8314514,9.844299,0.0018615723,0.009567261,-0.0018157959
-1.2581024,-0.83865356,9.858719,0.0039978027,0.004989624,-0.003036499
-1.2484894,-0.8314514,9.86351,0.01071167,0.0034484863,-0.0036468506
-1.2100067,-0.7979126,9.851501,0.013458252,0.0022277832,-2.89917E-4
-1.2196198,-0.8290558,9.844315,0.0140686035,0.0013275146,0.0043029785
-1.2220306,-0.84342957,9.84671,0.0043029785,-2.1362305E-4,0.0067443848
-1.250885,-0.81947327,9.84671,0.0015563965,-0.0026550293,0.008880615
-1.272522,-0.7811432,9.851501,0.0046081543,0.0068206787,0.008575439
-1.2292328,-0.79074097,9.791443,0.0043029785,0.01109314,0.0055236816
-1.2316437,-0.7979126,9.7890625,0.0012512207,0.011703491,0.003692627
-1.1883698,-0.8122864,9.849106,-0.006088257,0.008346558,3.2043457E-4
-1.2172241,-0.82907104,9.865921,-0.0054779053,-0.0014343262,-0.0033416748
-1.2364655,-0.80989075,9.829895,9.3078613E-4,-8.239746E-4,-0.0079193115
-1.2003784,-0.8314514,9.810669,3.2043457E-4,0.0016174316,-0.00944519
-1.1955872,-0.81947327,9.820297,-0.004562378,0.0052948,-0.009140015
-1.1763458,-0.8410492,9.865921,-0.007598877,3.9672852E-4,-0.010360718
-1.1835632,-0.8841858,9.904358,-0.004562378,-0.0026550293,-0.010360718
-1.1643219,-0.84103394,9.868332,0.0024719238,-0.0069274902,-0.0036468506
-1.2316437,-0.8674011,9.801071,0.003982544,-0.0047912598,0.0024719238
-1.2027893,-0.81707764,9.822678,0.002166748,-0.0023498535,0.006439209
-1.2316437,-0.82907104,9.853912,0.0043029785,-2.1362305E-4,0.0046081543
-1.2076111,-0.8074951,9.849106,0.0015411377,0.002532959,0.0058288574
-1.2172241,-0.8003082,9.858704,3.0517578E-5,0.009262085,0.007659912
-1.2484894,-0.7883301,9.844315,0.0015411377,0.0074310303,0.0030822754
-1.2532959,-0.7571869,9.817871,0.0024719238,0.0040740967,-0.0018157959
-1.2388611,-0.77633667,9.805878,0.0033874512,0.0019226074,-0.0054779053
-1.2412567,-0.77156067,9.841904,-9.0026855E-4,0.0055999756,-0.0063934326
-1.2340546,-0.7907257,9.86351,-0.0057678223,0.004989624,-0.007003784
-1.2436676,-0.83865356,9.829895,-0.0036468506,0.0028381348,-0.012802124
-1.2412567,-0.86260986,9.817886,-0.0018005371,-0.001739502,-0.012191772
-1.2436676,-0.8266754,9.820282,-0.004547119,-0.0020446777,-0.0066986084
-1.2340546,-0.855423,9.839493,-0.0066986084,-0.0014343262,-0.0039367676
-1.2268372,-0.855423,9.8611145,-0.0054779053,-0.0014343262,-0.0015106201
-1.2436676,-0.85780334,9.8611145,-0.003036499,-5.187988E-4,-5.950928E-4
-1.2388611,-0.84342957,9.84671,-0.0024261475,-2.1362305E-4,-2.746582E-4
-1.2388611,-0.83384705,9.844315,-0.002105713,0.004989624,-0.0012054443
-1.2124176,-0.8050995,9.8250885,-0.0051727295,0.0074310303,1.5258789E-5
-1.2364502,-0.8074951,9.801071,-0.0054779053,7.171631E-4,0.0012512207
-1.2196198,-0.8074951,9.839493,-0.0036468506,-0.001739502,3.3569336E-4
-1.2003784,-0.8290558,9.839493,-0.0024261475,1.0681152E-4,-2.89917E-4
-1.1883698,-0.83865356,9.815475,-0.003326416,0.0031433105,0.0015563965
-1.2052002,-0.85302734,9.79866,-0.0063934326,0.003768921,0.0030822754
-1.2172241,-0.87698364,9.846695,-0.0079193115,7.019043E-4,0.0015563965
-1.2364655,-0.87698364,9.84671,-0.0054779053,-0.001739502,-0.0027160645
-1.2484894,-0.88175964,9.868332,-0.0011901855,-2.1362305E-4,-0.0051574707
-1.1691437,-0.84103394,9.822678,0.003692627,0.006515503,-0.004257202
-1.1931763,-0.7979126,9.81308,0.005203247,0.0071258545,-0.0039367676
-1.197998,-0.80989075,9.846695,9.460449E-4,-0.002960205,-0.004562378
-1.2436676,-0.7883301,9.86351,-0.0036468506,-0.007232666,-0.004562378
-1.2460785,-0.81947327,9.834686,-0.0033416748,-0.004486084,-0.006088257
-1.2677155,-0.8170929,9.820282,-0.0027313232,-2.1362305E-4,-0.0063934326
-1.2436676,-0.83384705,9.810669,3.0517578E-5,0.004058838,-0.008224487
-1.2292328,-0.8434448,9.839493,-2.746582E-4,0.0031585693,-0.006088257
-1.2340546,-0.84342957,9.851501,-0.0021209717,-0.0020446777,-0.005783081
-1.2340546,-0.8674011,9.856323,3.2043457E-4,-0.0054016113,-0.0066986084
-1.2244263,-0.8434448,9.849106,0.0012512207,-0.0035705566,-0.004547119
-1.2292328,-0.8554077,9.832306,-9.0026855E-4,0.0022277832,-0.0024261475
-1.2124023,-0.8482208,9.849106,-0.0014953613,0.0034484863,9.460449E-4
-1.2172241,-0.8458252,9.820297,6.4086914E-4,-8.239746E-4,0.0027770996
-1.2124176,-0.8122864,9.801071,0.0024719238,-0.0020446777,0.003692627
-1.2076111,-0.8290558,9.810669,-9.0026855E-4,-8.239746E-4,0.0027770996
-1.2003784,-0.81947327,9.84671,-0.0054779053,0.0010070801,0.0024719238
-1.2196198,-0.8290558,9.86351,-0.00730896,-5.187988E-4,0.0033874512
-1.2268372,-0.8362427,9.844315,-0.0036468506,-5.187988E-4,0.0015563965
-1.2484894,-0.83865356,9.815475,0.00491333,0.003768921,-0.0018157959
-1.2677155,-0.8482208,9.815475,0.0027618408,-0.0023498535,-0.004547119
-1.2436676,-0.8482208,9.841904,-5.79834E-4,-0.0035705566,-0.004562378
-1.2556915,-0.8458252,9.868332,-9.0026855E-4,-0.0047912598,-0.004257202
-1.2292328,-0.855423,9.868332,0.0012512207,-0.007232666,-0.003036499
-1.2316437,-0.85302734,9.849106,0.0027770996,-0.008758545,-0.0018157959
-1.2172241,-0.86021423,9.820282,0.0015411377,-0.008453369,6.4086914E-4
-1.2052002,-0.85302734,9.820297,-5.79834E-4,-0.0063171387,0.0027770996
-1.2196198,-0.8697815,9.853912,-0.0033416748,-0.0035705566,0.0033874512
-1.2076111,-0.8889618,9.841904,-0.004257202,-0.0014343262,0.0043029785
-1.1859589,-0.88175964,9.839493,-0.0066986084,3.9672852E-4,0.0073547363
-1.1955872,-0.8482208,9.805878,-0.008529663,0.0013122559,0.011016846
-1.2148132,-0.83384705,9.827484,-0.010665894,0.0010070801,0.012542725
-1.2148132,-0.83384705,9.865921,-0.009140015,-0.0038757324,0.009796143
-1.2220306,-0.8458252,9.858704,-0.00730896,-0.0020446777,0.0058288574
-1.2316437,-0.85780334,9.846695,-0.003036499,0.005279541,9.460449E-4
-1.2292328,-0.80989075,9.849106,0.0030822754,0.0098724365,-9.0026855E-4
-1.2148132,-0.8027191,9.827484,0.0033874512,0.002532959,-2.746582E-4
-1.1955872,-0.8050995,9.796265,0.0018615723,-0.001739502,-2.89917E-4
-1.1955872,-0.8290558,9.829895,6.4086914E-4,-0.0011291504,3.0517578E-5
-1.1979828,-0.85302734,9.853912,-0.0018005371,-0.0020446777,-2.746582E-4
-1.2220306,-0.8650055,9.837097,-0.0027313232,-0.0032653809,6.4086914E-4
-1.2076111,-0.86021423,9.832306,-0.0024261475,0.0019378662,0.0043029785
-1.2052002,-0.86260986,9.84671,-0.0015106201,0.003768921,0.005218506
-1.2027893,-0.88417053,9.810669,3.0517578E-5,0.0019226074,0.00491333
-1.2172241,-0.874588,9.827484,-0.0011901855,-1.9836426E-4,0.0042877197
-1.2220306,-0.85780334,9.839493,-0.0011901855,7.171631E-4,0.005203247
-1.2100067,-0.85780334,9.856323,0.0018615723,0.0028533936,0.003982544
-1.2412567,-0.85780334,9.820282,6.4086914E-4,0.002243042,0.0012359619
-1.2268372,-0.8506317,9.834686,-0.0024261475,7.171631E-4,-6.1035156E-4
-1.2460785,-0.8458252,9.815475,-0.0018005371,0.0028533936,1.5258789E-5
-1.2532806,-0.8458252,9.851501,0.0012512207,0.0040740967,1.5258789E-5
-1.2340546,-0.8362427,9.846695,0.0018615723,0.0025634766,9.3078613E-4
-1.2316437,-0.86260986,9.803452,3.3569336E-4,0.0019378662,0.0012359619
-1.2292328,-0.874588,9.837097,-0.0018157959,-0.0011138916,0.002456665
-1.2436676,-0.8721924,9.841904,3.0517578E-5,-5.0354004E-4,0.0027618408
-1.2076111,-0.88656616,9.846695,0.0012512207,0.0028533936,0.0033721924
-1.2100067,-0.8721924,9.839493,-0.0012054443,0.0010223389,0.005508423
-1.2100067,-0.874588,9.820297,-0.0036468506,1.0681152E-4,0.008560181
-1.2196198,-0.85302734,9.815475,-0.0036468506,-0.0035552979,0.011932373
-1.2148132,-0.8506317,9.803467,-5.79834E-4,-0.0014190674,0.010391235
-1.2388611,-0.8578186,9.834702,-0.0018157959,-0.0026397705,0.007949829
-1.2148132,-0.85780334,9.849106,-0.003326416,-0.0069122314,0.0061187744
-1.2196198,-0.8506317,9.853912,-2.746582E-4,-0.007522583,0.0042877197
-1.2172241,-0.8314514,9.803467,0.0030822754,-0.002029419,0.0033721924
-1.2196198,-0.8314514,9.832291,0.0015563965,1.2207031E-4,0.0012359619
-1.2052002,-0.83384705,9.853912,-8.8500977E-4,-0.0026397705,0.0015411377
-1.2100067,-0.83384705,9.844315,3.2043457E-4,-0.0026397705,-6.1035156E-4
-1.2268372,-0.84342957,9.841904,6.4086914E-4,0.0016326904,6.2561035E-4
-1.2268372,-0.855423,9.837097,-2.746582E-4,0.0034637451,0.0036773682
-1.2124023,-0.85302734,9.827484,-5.79834E-4,0.0025482178,0.0036773682
-1.2148132,-0.85780334,9.834686,1.5258789E-5,0.0025634766,0.0036773682
-1.2364655,-0.86021423,9.815475,-3.0517578E-4,0.004714966,0.0036773682
-1.2292328,-0.83865356,9.808273,1.5258789E-5,0.0034942627,0.003982544
-1.2556915,-0.8410492,9.870728,-2.89917E-4,0.0028686523,0.0042877197
-1.2484894,-0.8650055,9.8971405,-0.00793457,0.0050201416,0.0027618408
-1.2340546,-0.88417053,9.856323,-0.0045776367,-0.0041503906,0.0021514893
-1.2460785,-0.8482208,9.803467,0.0015258789,1.2207031E-4,0.005203247
-1.2412567,-0.86260986,9.815475,-2.89917E-4,0.008377075,0.00642395
-1.2364655,-0.8650055,9.832306,-0.0012054443,0.0037841797,0.0045928955
-1.2244415,-0.855423,9.858704,-0.0036621094,-0.0017089844,0.0036773682
-1.2268372,-0.8434448,9.865921,-0.0033416748,-0.004760742,0.0042877197
-1.2220306,-0.8506317,9.822678,1.5258789E-5,4.272461E-4,0.005508423
-1.2268372,-0.86979675,9.841904,-0.0039520264,0.0010375977,0.005508423
-1.2100067,-0.86021423,9.837097,-0.009765625,0.0013580322,0.0070343018
-1.2196198,-0.86260986,9.841904,-0.008850098,-0.0020141602,0.008255005
-1.2388763,-0.8554077,9.849106,-0.00579834,-0.0044555664,0.0061187744
-1.2508698,-0.86021423,9.805862,-0.004272461,-0.0014038086,0.0015411377
-1.2556915,-0.8650055,9.803467,-0.0039520264,0.0040893555,-0.0039520264
-1.2244415,-0.8697815,9.822678,-0.0036621094,0.001953125,-0.005493164
-1.2027893,-0.874588,9.849106,-0.0036621094,-0.002319336,-0.0051879883
-1.2124023,-0.8721924,9.853912,-0.0027313232,-0.0010986328,-0.0039520264
-1.2172241,-0.86260986,9.841904,-0.0018310547,-0.0020141602,-0.0036621094
-1.2172241,-0.86260986,9.8250885,-0.0027313232,-0.0017089844,-0.0030517578
-1.2340546,-0.8721924,9.844315,-0.0018310547,-0.005065918,-0.0021362305
-1.2316437,-0.8674011,9.849106,-0.0015106201,-0.0010986328,-6.1035156E-4
-1.2196198,-0.86021423,9.84671,-5.950928E-4,1.373291E-4,0.002456665
-1.2460785,-0.86260986,9.8250885,6.4086914E-4,0.0053100586,0.0027618408
-1.2436676,-0.85780334,9.841904,3.3569336E-4,0.004699707,0.0012359619
-1.2460785,-0.8697815,9.849106,-2.746582E-4,0.0046844482,0.0012359619
-1.2268372,-0.8817749,9.84671,-0.0018157959,0.0056152344,9.3078613E-4
-1.2172241,-0.874588,9.832306,-0.0015106201,0.001953125,0.0021514893
-1.2244263,-0.8721924,9.822678,3.0517578E-5,0.002243042,0.0036773682
-1.2124176,-0.874588,9.844315,9.460449E-4,0.0028533936,0.0058135986
-1.2220154,-0.8674011,9.839493,-5.79834E-4,0.0028533936,0.0058135986
-1.2292328,-0.88417053,9.837097,-0.004257202,4.119873E-4,0.0061187744
-1.2532806,-0.874588,9.834702,-0.004562378,0.0025634766,0.0048980713
-1.2388763,-0.8674011,9.844315,-0.0024261475,0.0056152344,0.0027618408
-1.260498,-0.88656616,9.856323,-0.002105713,0.0034637451,-3.0517578E-4
-1.2340546,-0.8937378,9.849106,-0.004257202,0.0010223389,-0.0021209717
-1.2412567,-0.8650055,9.810669,-0.003036499,-0.0011138916,-0.0021362305
-1.250885,-0.855423,9.79866,0.0012512207,-0.005996704,-0.0024414062
-1.2340546,-0.8482208,9.834686,0.0015563965,-0.008132935,-0.0036621094
-1.2052002,-0.86738586,9.849106,6.4086914E-4,-0.008132935,-0.0045776367
-1.1979828,-0.87698364,9.827484,-2.746582E-4,-0.0017242432,-0.0036621094
-1.2003784,-0.874588,9.822678,-0.0018157959,7.171631E-4,-0.0012207031
-1.1931763,-0.88417053,9.820282,-5.79834E-4,-1.9836426E-4,9.3078613E-4
-1.2052002,-0.8889618,9.844315,-0.0033416748,-0.0035552979,0.002456665
-1.2268372,-0.8985443,9.846695,-0.003036499,-1.9836426E-4,0.0030670166
-1.2388611,-0.88175964,9.829895,-0.0011901855,0.0016326904,0.0030670166
-1.2196198,-0.88417053,9.834686,9.460449E-4,0.0013427734,0.0036773682
-1.2436676,-0.8937378,9.8250885,0.0021514893,-4.8828125E-4,0.003982544
-1.2436676,-0.8650055,9.832306,0.0039978027,0.001953125,0.002456665
-1.2556915,-0.8721924,9.839493,0.0055236816,0.0034637451,-9.1552734E-4
-1.2484894,-0.8721924,9.834702,0.0055236816,0.0028533936,-0.0021362305
-1.2436676,-0.8554077,9.841904,0.0015411377,0.002243042,-0.0015258789
-1.2100067,-0.86021423,9.844315,0.0024719238,0.00592041,0.0018463135
-1.2172241,-0.855423,9.851501,0.0018615723,0.0095825195,0.0073394775
-1.2172241,-0.8362427,9.865921,-2.89917E-4,0.008666992,0.010391235
-1.2436676,-0.8458252,9.851501,-0.0018157959,0.008056641,0.011932373
-1.2532959,-0.8578186,9.8250885,-0.0011901855,0.012329102,0.010696411
-1.2677155,-0.88656616,9.820282,-2.746582E-4,0.0095825195,0.0061187744
-1.2581024,-0.90093994,9.822678,-5.79834E-4,0.0095825195,9.3078613E-4
-1.2364655,-0.88656616,9.839493,-0.0014953613,0.0040740967,-0.0021209717
-1.2364655,-0.88656616,9.839493,3.0517578E-5,7.171631E-4,-0.002746582
-1.2388763,-0.88656616,9.844315,0.0015563965,-0.002029419,-0.0039520264
-1.2508698,-0.8889618,9.827484,0.0030822754,-0.0023345947,-0.0061035156
-1.2460785,-0.8650055,9.827484,0.0030822754,-1.9836426E-4,-0.007019043
-1.2220306,-0.86260986,9.832306,0.0024719238,4.119873E-4,-0.0073242188
-1.2436676,-0.86021423,9.841904,0.0018615723,1.2207031E-4,-0.0064086914
-1.2436676,-0.8721924,9.853912,6.4086914E-4,-1.9836426E-4,-0.005493164
-1.2436676,-0.8650055,9.841904,9.460449E-4,0.002243042,-0.0027313232
-1.2581024,-0.8674011,9.822678,0.0012512207,0.0052948,-2.89917E-4
-1.2629089,-0.88656616,9.832306,3.0517578E-5,0.00592041,1.5258789E-5
-1.2749329,-0.8817749,9.810669,9.460449E-4,0.0043792725,-9.1552734E-4
-1.2556915,-0.8674011,9.827484,0.0027770996,0.004699707,3.2043457E-4
-1.2412567,-0.874588,9.829895,6.4086914E-4,0.0056152344,0.0027618408
-1.2460785,-0.87698364,9.841904,9.3078613E-4,0.0019378662,0.0042877197
-1.2556915,-0.86260986,9.837097,0.002166748,0.002243042,0.005508423
-1.2581024,-0.8554077,9.829895,0.0024719238,0.0052948,0.0070343018
-1.2532806,-0.855423,9.832306,6.4086914E-4,0.0065307617,0.006729126
-1.2677155,-0.86979675,9.827484,-0.0011901855,0.0053100586,0.005508423
-1.2701111,-0.8697815,9.837097,-0.0011901855,0.0016326904,0.0027618408
-1.2701111,-0.8721924,9.839493,6.4086914E-4,0.0010223389,9.3078613E-4
-1.250885,-0.8793793,9.839493,9.3078613E-4,-4.8828125E-4,-0.0018310547
-1.2484894,-0.8793793,9.829895,0.002166748,-5.0354004E-4,-0.0030517578
-1.2436676,-0.87698364,9.817886,0.0033721924,7.324219E-4,-0.005493164
-1.2148132,-0.874588,9.817886,0.0030822754,0.0025634766,-0.0051727295
-1.2196198,-0.8985443,9.844315,-5.79834E-4,0.0016326904,-0.003967285
-1.2484894,-0.88417053,9.841904,-0.0014953613,7.324219E-4,-0.0024414062
-1.260498,-0.8482208,9.832306,3.0517578E-5,0.0013275146,-0.0015106201
-1.2965698,-0.86021423,9.834686,3.0517578E-5,0.0010223389,-0.0021209717
-1.272522,-0.88417053,9.839493,-9.0026855E-4,0.0013275146,-0.0036621094
-1.2677155,-0.8913574,9.851501,-0.0033416748,0.002243042,-0.0039520264
-1.2701111,-0.8697815,9.844315,-0.0018005371,0.005004883,-0.0024414062
-1.2797241,-0.86260986,9.817886,0.0021514893,0.002243042,-0.0012207031
-1.272522,-0.8458252,9.8250885,0.0030822754,-0.0017242432,-0.0015106201
-1.250885,-0.86021423,9.841904,3.2043457E-4,-0.0017242432,-3.0517578E-4
-1.2364655,-0.89616394,9.8250885,-9.0026855E-4,0.0010223389,1.5258789E-5
-1.2460785,-0.88417053,9.846695,-0.0012054443,0.0019378662,0.002456665
-1.2532959,-0.88175964,9.8250885,3.3569336E-4,0.0034637451,0.0045928955
-1.2532959,-0.8697815,9.822678,-0.0018157959,0.0016326904,0.0058135986
-1.250885,-0.89375305,9.81308,-0.003036499,1.2207031E-4,0.0048980713
-1.2629089,-0.89375305,9.839493,-0.0018005371,-1.9836426E-4,0.0045928955
-1.2484894,-0.87698364,9.832291,6.4086914E-4,-0.0023345947,0.0027618408
-1.2412567,-0.85780334,9.803467,0.0043029785,-1.9836426E-4,9.3078613E-4
-1.2460785,-0.8674011,9.817886,0.0033874512,0.0025482178,-0.0015258789
-1.260498,-0.8554077,9.839493,3.2043457E-4,1.0681152E-4,-0.0027313232
-1.2484894,-0.87698364,9.849106,-0.0024261475,0.0010223389,-0.0024414062
-1.2653046,-0.8721924,9.841904,-0.0024261475,0.0031738281,1.5258789E-5
-1.2869568,-0.85302734,9.829895,-8.8500977E-4,0.0037841797,-6.1035156E-4
-1.291748,-0.8674011,9.8250885,-2.89917E-4,0.0028533936,-0.0021209717
-1.2653046,-0.8793793,9.820297,-9.0026855E-4,0.0013275146,-0.0036621094
-1.260498,-0.8817749,9.834702,3.0517578E-5,0.0019378662,-0.0039520264
-1.2532806,-0.874588,9.8250885,6.4086914E-4,0.0025482178,-0.0036621094
-1.260498,-0.8817749,9.815475,3.3569336E-4,0.0013427734,-0.0021362305
-1.2653198,-0.88417053,9.837097,3.3569336E-4,1.2207031E-4,-0.0015258789
-1.2677155,-0.874588,9.837097,-8.8500977E-4,-0.0014190674,-0.0012207031
-1.2701111,-0.8793793,9.841904,3.2043457E-4,1.0681152E-4,-0.0012207031
-1.2629089,-0.874588,9.827484,6.4086914E-4,0.0028533936,-0.0018310547
-1.2629089,-0.8650055,9.81308,0.002166748,0.0028533936,-0.0018310547
-1.2460785,-0.8674011,9.829895,0.0015563965,0.002243042,-0.0027313232
-1.2532806,-0.874588,9.832306,9.3078613E-4,0.0016326904,-0.0021362305
-1.2484894,-0.8674011,9.844315,9.460449E-4,0.0013427734,-0.0012207031
-1.2532959,-0.8650055,9.829895,0.0015563965,0.0031585693,-6.1035156E-4
-1.2484894,-0.874588,9.8250885,-5.79834E-4,0.0056152344,9.3078613E-4
-1.260498,-0.86021423,9.8250885,-0.002105713,0.007751465,0.0018463135
-1.2701111,-0.85780334,9.827484,-0.0027160645,0.005004883,0.0015411377
-1.2941589,-0.8793793,9.84671,-0.002105713,0.0034637451,1.5258789E-5
-1.2749176,-0.90093994,9.841904,-0.0011901855,0.0034637451,-0.0021209717
-1.2749329,-0.88417053,9.84671,-5.79834E-4,0.0010223389,-0.0036621094
-1.291748,-0.90812683,9.815475,0.0015563965,0.002243042,-0.005493164
-1.2797241,-0.8913574,9.827484,0.0024719238,1.2207031E-4,-0.006713867
-1.2773285,-0.88175964,9.8250885,0.0027618408,0.001953125,-0.0064086914
-1.2773285,-0.8913574,9.827484,0.0015563965,-5.0354004E-4,-0.005493164
-1.2701111,-0.85302734,9.822678,0.0012512207,1.2207031E-4,-0.0045776367
-1.282135,-0.8674011,9.820297,0.0015563965,7.171631E-4,-0.0030517578
-1.282135,-0.8458252,9.81308,0.0015563965,7.171631E-4,-0.0030517578
-1.2797241,-0.874588,9.8250885,3.3569336E-4,0.002243042,-0.0036621094
-1.2629089,-0.8674011,9.841904,-0.0018157959,0.0019378662,-0.0030517578
-1.272522,-0.87698364,9.822678,-9.0026855E-4,-1.9836426E-4,-0.0021362305
-1.2701111,-0.879364,9.834686,-2.89917E-4,0.0013275146,-0.0018310547
-1.2581024,-0.87698364,9.8250885,9.3078613E-4,0.0025482178,-0.0021362305
-1.2581024,-0.8889618,9.817886,6.4086914E-4,0.0028533936,-0.0027313232
-1.2629089,-0.8817749,9.837097,-8.8500977E-4,0.0016326904,-0.0012207031
-1.2653198,-0.87698364,9.8250885,-5.79834E-4,0.0031738281,3.2043457E-4
-1.2677155,-0.874588,9.81308,9.460449E-4,0.002243042,3.2043457E-4
-1.2701111,-0.874588,9.839493,6.4086914E-4,0.0019378662,-0.0012207031
-1.2749176,-0.86260986,9.827484,6.4086914E-4,0.0010223389,-0.0030517578
-1.272522,-0.8650055,9.832306,9.3078613E-4,0.0053100586,-0.004272461
-1.2629089,-0.88417053,9.817886,9.3078613E-4,0.008056641,-0.006713867
-1.272522,-0.89375305,9.827484,3.3569336E-4,0.0068359375,-0.009460449
-1.282135,-0.90093994,9.849106,0.0015411377,0.004699707,-0.010681152
-1.2749329,-0.9057312,9.827484,0.0030822754,4.119873E-4,-0.009460449
-1.2869568,-0.8937378,9.837097,0.002166748,4.119873E-4,-0.0076293945
-1.282135,-0.8937378,9.8250885,0.0018615723,0.0043945312,-0.005493164
-1.2797241,-0.8721924,9.817871,0.0018615723,0.0031585693,-0.004272461
-1.2749176,-0.88175964,9.839493,0.0012359619,0.0037841797,-0.0030517578
-1.282135,-0.8793793,9.832306,3.2043457E-4,0.0043945312,-0.0012207031
-1.2893372,-0.874588,9.822678,-3.0517578E-4,0.003479004,-9.1552734E-4
-1.2845459,-0.86979675,9.829895,9.1552734E-4,0.0028686523,1.5258789E-5
-1.3013763,-0.86021423,9.815475,-5.950928E-4,7.4768066E-4,1.5258789E-5
-1.2893372,-0.86979675,9.837097,1.5258789E-5,-0.0014038086,-2.89917E-4
-1.2845459,-0.88417053,9.832306,-5.950928E-4,-1.8310547E-4,-2.89917E-4
-1.2797241,-0.8937378,9.834686,-5.950928E-4,0.0010375977,-2.89917E-4
-1.2797241,-0.89375305,9.822678,9.1552734E-4,4.272461E-4,-9.1552734E-4
-1.2941589,-0.87698364,9.817886,9.1552734E-4,-7.9345703E-4,-9.0026855E-4
-1.260498,-0.874588,9.815475,6.2561035E-4,-7.9345703E-4,-2.89917E-4
-1.2653198,-0.8817749,9.827484,6.2561035E-4,0.0010375977,6.2561035E-4
-1.2893372,-0.88175964,9.84671,-9.0026855E-4,-4.7302246E-4,3.2043457E-4
-1.2581024,-0.88656616,9.834702,3.2043457E-4,-0.0041503906,6.2561035E-4
-1.3013763,-0.874588,9.829895,0.0012359619,-4.8828125E-4,-9.0026855E-4
-1.2653046,-0.86260986,9.8250885,3.2043457E-4,0.0013427734,-0.0018310547
-1.2773285,-0.86979675,9.8250885,-3.0517578E-4,4.272461E-4,-0.0036621094
-1.2508698,-0.874588,9.834702,-5.950928E-4,1.2207031E-4,-0.004272461
-1.2653046,-0.8793793,9.841904,9.1552734E-4,4.272461E-4,-0.0030517578
-1.2749329,-0.88656616,9.834686,0.0015411377,0.004699707,-0.0021362305
-1.282135,-0.87698364,9.822678,-2.89917E-4,0.0022583008,-0.0012207031
-1.2869568,-0.8889618,9.820282,-0.0018310547,0.00440979,3.2043457E-4
-1.3134003,-0.88656616,9.834702,-0.0021209717,0.0043945312,-9.0026855E-4
-7.949234,-5.939575,1.881607,-0.52423096,-0.4353485,-0.048599243
-7.641464,-6.136032,1.7662964,-0.44389343,-0.44114685,-0.12283325
-7.3818207,-6.1432343,1.9104156,-0.37028503,-0.19038391,-0.16619873
-7.4659576,-6.4690857,1.6582184,-0.35195923,0.081451416,-0.1924591
-7.42749,-6.2773895,1.4011841,-0.3562317,0.18132019,-0.16313171
-7.3168945,-6.3636475,1.1970215,-0.355011,0.108932495,-0.14634705
-7.51886,-6.493042,1.2810822,-0.3440094,-0.06210327,-0.18330383
-7.497223,-6.0282135,1.4636383,-0.32507324,-0.16259766,-0.18360901
-7.463562,-5.8006134,2.0761566,-0.30615234,-0.22001648,-0.121292114
-7.538086,-5.7838287,1.7807007,-0.21084595,-0.048980713,-0.077926636
-7.326523,-6.181549,1.237854,-0.11860657,0.23599243,-0.08769226
-7.2111206,-6.5074005,1.3123169,-0.08744812,0.25982666,-0.08894348
-7.326523,-6.1144867,1.6798248,-0.10668945,0.12452698,-0.027236938
-7.615036,-6.0761414,1.5717316,-0.12806702,0.121170044,-0.009216309
-7.4900055,-6.0545654,1.4900665,-0.09051514,0.12025452,-0.015930176
-7.398636,-6.169586,1.6293793,-0.062408447,0.17218018,-0.033950806
-7.3000793,-6.5720825,1.7254486,-0.055984497,0.23936462,-0.060836792
-7.355377,-6.116867,1.4131927,-0.048355103,0.30900574,0.024383545
-7.3793945,-5.592163,1.0336761,-0.08836365,0.22807312,0.07722473
-7.19429,-5.743103,0.95440674,-0.1302185,0.15202332,0.087905884
-7.485214,-6.433136,1.5597229,-0.10455322,0.20150757,-0.03364563
-7.7064056,-5.987488,1.319519,-0.04866028,0.5240326,-0.12132263
-7.398636,-5.462784,0.53886414,-0.06881714,0.78274536,-0.18331909
-6.963455,-6.4882355,0.20736694,-0.15525818,0.6782837,-0.29327393
-6.689377,-6.3301086,0.18817139,-0.20718384,0.5237274,-0.23492432
-7.1365814,-5.5777893,0.8607178,-0.22886658,0.43026733,-0.1946106
-7.054825,-3.4550018,1.2234344,-0.17114258,0.41712952,-0.2447052
-6.408081,-4.0012665,1.1633759,0.08175659,0.44859314,-0.61795044
-6.311905,-5.7598724,1.0480804,0.34075928,0.48860168,-1.3164825
-7.066864,-6.6799164,0.5700836,0.6064911,0.4281311,-1.9636993
-8.528671,-6.7901306,0.76464844,0.79678345,0.3572693,-2.1573486
-7.6054077,-9.210007,2.8616333,0.77937317,0.5478668,-1.9374237
-4.8284607,-10.216309,1.4516296,0.64956665,1.3480988,-0.881546
-3.347412,-8.083923,-1.1425476,0.4788208,1.5970306,0.47123718
-2.5612183,-7.357956,-2.5213318,0.16880798,0.5057068,0.96817017
-2.0058289,-2.5397491,-3.160263,-0.40693665,-1.1494446,1.2763519
-4.4774475,-2.1372375,3.4669342,-0.24749756,-3.0495605,0.6993866
-8.8892975,-8.493637,3.3756561,-0.84913635,-2.6015167,-1.1842041
-11.2695465,-13.491531,2.2683258,-1.487793,-0.7322693,-2.3372192
-9.334091,-13.549042,1.9128265,-1.1084442,0.15136719,-2.0629425
-5.867111,-10.693085,0.92077637,-0.49482727,0.72161865,-1.3427429
-3.104599,-8.464874,0.28425598,-0.11578369,0.66326904,-0.9343567
-3.715271,-8.107895,0.053649902,-0.20466614,0.28422546,-0.78134155
-4.467819,-8.517593,0.6013031,-0.36746216,-0.27197266,-0.8610687
-6.0690765,-7.7940216,-0.44836426,-0.6050873,-0.50868225,-0.8625946
-4.664963,-8.122253,0.16415405,-1.0543823,-1.1568146,-0.7346039
-3.8090515,-8.122269,0.29385376,-1.5073395,-1.382843,-0.5782318
-3.5036926,-8.299561,-0.28744507,-1.4593964,-1.4873047,-0.39344788
-5.2155457,-9.756287,1.6053619,-1.1469269,-1.584732,-0.40931702
-6.1772614,-9.507111,0.87994385,-0.51223755,-0.6714783,-0.5818939
-4.6601715,-8.201324,-0.938385,0.07115173,0.06340027,-0.6283264
-4.0638885,-9.214813,-1.3371124,-0.07211304,-0.06977844,-0.70040894
-4.93425,-10.54454,-0.7438202,-0.40716553,-0.77349854,-0.88305664
-4.0638885,-10.357666,0.17134094,-0.31278992,-1.1983643,-1.1105957
-2.7319183,-9.696381,1.0600891,-0.24925232,-1.1772766,-1.2850037
-2.7511597,-9.023117,0.74783325,-0.38975525,-0.8318329,-1.4832306
-3.9220428,-9.511902,-0.4820099,-0.5849304,-0.49891663,-1.5598907
-3.2464447,-8.900925,-0.9552002,-0.57240295,-0.6684265,-1.519577
-2.0971985,-8.503204,-0.5180359,-0.08065796,-0.7670746,-1.4410858
-1.7990723,-8.270813,-0.21298218,0.19148254,-0.6965332,-1.5082855
-1.4191895,-8.596649,0.2890625,0.18721008,-0.8938446,-1.4728394
-2.263092,-9.3489685,0.8319092,0.10595703,-1.1479492,-1.3647156
-2.5900726,-9.243561,0.4788208,0.25379944,-0.84558105,-1.2205505
-0.3564911,-9.4496155,0.43075562,0.47431946,-0.6736145,-0.8607483
0.8985596,-10.903931,0.034439087,0.53570557,-0.51142883,-0.6570282
0.09312439,-11.785629,0.91596985,0.2644806,-0.6012268,-0.7462158
-0.017486572,-11.387909,1.2978973,-0.08279419,-0.62719727,-0.7462158
-6.5612793E-4,-10.271393,0.47399902,-0.21382141,-0.34680176,-0.7135315
-0.23867798,-8.963226,0.3034668,-0.17015076,-0.24205017,-0.7281952
-0.79167175,-10.295364,0.3779297,-0.1683197,-0.34222412,-0.4303894
-0.33244324,-10.515793,0.9328003,-0.3091278,-0.30770874,-0.031799316
0.60765076,-9.775436,0.06567383,-0.20069885,0.054229736,0.17863464
0.2421875,-10.247437,0.11129761,-0.0776062,0.19961548,0.05340576
0.7182312,-9.564606,0.2722473,-0.1918335,0.11225891,-0.15550232
-1.2412567,-11.169876,0.86312866,-0.22024536,-0.034347534,-0.29508972
0.18208313,-10.22348,1.309906,-0.13716125,-0.05206299,-0.15306091
-0.35890198,-9.935974,0.721405,0.08488464,0.3254547,-0.2782898
-1.3206024,-10.652359,0.91838074,0.20248413,0.36332703,-0.24102783
-0.072784424,-9.746704,0.4764099,0.23516846,0.35539246,0.07234192
-1.3855133,-9.528656,1.4228058,0.16888428,0.28544617,0.053710938
-0.9864044,-9.085434,1.4612427,0.42788696,0.6812897,0.037216187
0.22535706,-10.120468,-0.41233826,0.9126129,1.1147003,-0.2388916
-1.7798309,-11.414261,0.14013672,0.72172546,0.7878876,-0.3613739
-0.067977905,-9.574188,1.2306366,0.30784607,0.3624115,-0.093811035
0.8192291,-8.584671,0.4932251,0.17224121,0.40274048,-0.06997681
-1.0320892,-9.842545,0.6805725,0.05189514,0.23840332,-0.23858643
0.8072052,-8.642166,0.6805725,0.026855469,-0.020599365,-0.10357666
-0.21463013,-9.26033,0.4355774,0.115737915,-0.06550598,-0.19857788
-0.78685,-10.908722,0.7310333,0.13009644,-0.06794739,-0.21994019
0.24459839,-9.892853,1.2978973,-0.025375366,-0.049621582,-0.015319824
0.67497253,-8.980011,1.449234,-0.2984314,-0.08963013,0.099227905
1.2279358,-8.867386,-0.04484558,-0.36470032,-0.13360596,0.062576294
0.48983765,-9.531067,0.28425598,-0.30943298,-0.25242615,-0.18115234
-0.26992798,-10.213913,0.09928894,-0.35005188,0.119903564,-0.4667511
-1.7702179,-12.238449,1.8095398,-0.375412,0.19076538,-0.5751648
0.083496094,-10.54454,1.0432892,-0.02293396,-0.06794739,-0.25263977
1.3409576,-9.217209,-0.08807373,0.026245117,0.2723236,-0.111831665
0.011367798,-9.370544,0.5604706,0.07052612,-0.1806488,-0.33570862
-1.0056458,-10.369644,0.8199005,0.035705566,-0.30252075,-0.5088959
-1.3446503,-10.285782,1.2882996,0.12734985,-0.25242615,-0.33755493
-1.1066132,-9.574188,1.2570648,0.29777527,-0.16415405,0.04486084
0.3215332,-8.845825,1.4252167,0.34848022,-0.035873413,0.39031982
0.97068787,-8.079132,0.06326294,0.36283875,0.054534912,0.44589233
0.28546143,-9.236374,1.614975,0.032058716,-0.27166748,0.21316528
0.66293335,-11.313644,0.4139557,-0.08187866,-0.24906921,0.094329834
1.1413879,-10.345688,0.5292511,-0.031188965,-0.18339539,0.17863464
1.3121033,-9.516678,0.07527161,-0.15304565,-0.50868225,0.27638245
1.9901123,-7.9785156,0.23139954,-0.3922119,-1.0801544,0.22293091
1.2135315,-8.213318,0.048858643,-0.582489,-1.5477753,-0.121902466
0.732666,-9.4088745,0.80789185,-0.7187042,-1.5954285,-0.43345642
-0.8133087,-10.508621,1.4444275,-0.66067505,-1.5483856,-0.6729126
-0.8878479,-11.229782,0.30827332,-0.3561554,-0.35505676,-0.68330383
0.99713135,-10.012634,-0.032821655,-0.109069824,0.2875824,-0.480484
1.3000793,-8.853027,0.61813354,-0.09776306,0.21855164,-0.48139954
2.0189667,-8.354675,-0.0856781,-0.15151978,0.33094788,-0.5195923
0.33355713,-9.528671,0.33468628,-0.2626953,0.44122314,-0.5770111
0.35758972,-8.455292,0.46681213,-0.3167572,0.30743408,-0.3922119
0.8072052,-8.761963,-0.25862122,-0.30943298,0.73443604,-0.18818665
0.5571594,-9.116562,-0.1217041,-0.2718506,0.8019409,-0.069366455
0.71343994,-7.3220215,-0.30426025,-0.3262329,0.7637634,0.056167603
1.3000793,-8.462479,-0.6933899,-0.548584,0.82484436,0.2180481
1.5453186,-9.12854,-0.30426025,-0.8561554,1.0756073,0.43611145
2.3194885,-7.99527,-0.8783417,-1.2187042,1.24086,0.46147156
-0.3396454,-13.75029,-2.4564667,-1.358902,1.3181152,0.5356903
-2.3015594,-11.641876,-0.51083374,-1.0076447,0.08294678,0.44223022
-1.8687744,-10.951843,-1.8175354,-0.49879456,0.2936859,0.55249023
-0.8445587,-10.803299,-1.4308167,-0.30178833,-0.009002686,1.0115662
-0.48391724,-10.78653,-1.7262573,-0.16433716,-0.25852966,1.2592621
0.25180054,-12.525986,-0.16252136,-0.27522278,-0.6922455,1.2192535
0.22055054,-10.8320465,-0.8255005,-0.29873657,-0.38591003,0.6007538
0.23979187,-9.221985,-1.113739,-0.16496277,-0.31259155,0.0082092285
-0.043930054,-8.850616,-1.3083038,-0.16740417,-0.44056702,-0.25416565
-0.33485413,-10.37204,-1.325119,-0.0717926,-0.5718994,-0.006454468
0.109954834,-10.189957,-0.9720154,-0.107543945,-0.6305542,0.100753784
1.5573273,-8.797913,-1.0513,-0.13319397,-0.48516846,0.0082092285
-0.368515,-10.7074585,-1.2602539,-0.19856262,-0.4946289,-0.16589355
-0.68588257,-11.375931,-1.4620361,-0.22817993,-0.2224884,-0.35494995
-0.4358368,-11.716156,-0.69577026,-0.31095886,-0.13452148,-0.43345642
0.41529846,-11.354355,-0.91677856,-0.31828308,0.023376465,-0.55685425
2.434906,-9.854523,-2.0433197,-0.16923523,0.2411499,-0.5235596
1.5044403,-10.776947,-2.105774,-0.16098022,0.1980896,-0.56936646
-0.051132202,-10.810486,-0.8879547,-0.20924377,-0.114990234,-0.5708771
-0.11125183,-11.021332,-0.57328796,-0.1353302,0.004119873,-0.25964355
-0.56085205,-11.076447,-0.996048,0.009140015,0.12599182,-0.0605011
-0.7219391,-11.471756,-1.406784,0.18232727,0.1250763,0.18048096
0.82162476,-10.817688,-2.0913696,0.25074768,0.3199463,0.3796234
0.48501587,-10.7673645,-2.317154,0.3280182,0.7084656,0.39642334
-0.6594238,-8.081528,-1.4380188,0.4324646,0.5206146,0.59129333
-1.5201569,-5.8796844,-1.4980621,0.27365112,0.4595337,0.7962494
-1.272522,-5.0770416,-1.4476166,-0.115478516,0.14157104,0.63801575
-0.2771454,-10.345688,-2.2282715,-0.23428345,-0.16142273,0.2238617
-0.49353027,-17.269913,-3.0185394,0.081832886,0.09729004,-0.09288025
-0.63778687,-16.313934,-2.2042542,0.58917236,0.44517517,0.011276245
0.9899292,-11.397491,-3.3308105,0.5366211,0.5673523,0.5350952
0.2806549,-9.528656,-0.8423004,-0.10203552,-0.6940918,0.2434082
0.38883972,-8.20372,-1.1473694,0.04273987,-0.76190186,0.3683319
0.45137024,-8.179764,-0.62132263,0.29838562,-0.5554352,0.5683899
-0.19779968,-6.962631,0.041656494,0.37382507,-0.23014832,0.3982544
-0.5704651,-7.54245,0.16896057,0.40039062,0.038635254,0.27243042
-1.1018219,-6.8739777,0.2794342,0.3292389,0.11315918,0.32250977
-1.8375397,-5.776657,-0.1361084,0.36161804,0.134552,0.24279785
-2.38089,-7.837143,-0.77505493,0.6197052,0.21090698,0.17254639
-2.1645203,-9.037506,0.082473755,0.50852966,0.10093689,-0.008575439
-0.9239044,-8.728424,-0.49882507,0.17500305,0.09788513,-0.14785767
-2.4265747,-9.130951,0.024841309,-0.02293396,-0.11193848,-0.057144165
-1.8182983,-8.754791,-0.42196655,-0.08187866,-0.1333313,-0.11395264
-1.2412567,-8.31633,-0.3186798,-0.10386658,-0.35261536,-0.14204407
-0.36369324,-8.740402,-0.27783203,-0.07331848,-0.14794922,-0.17260742
0.2421875,-8.421753,-0.4267578,-0.032714844,-0.32724,-0.18421936
-0.13769531,-8.984787,-0.15533447,-0.024459839,-0.511734,-0.11854553
-0.8349304,-11.790421,-0.95280457,-0.077301025,-0.31654358,-0.085250854
-1.0104523,-11.893448,-1.6878204,-0.0763855,-0.07098389,0.04701233
-1.594696,-10.501419,-1.6469879,-0.27827454,-0.29364014,0.013397217
-2.0851746,-9.509506,-1.0344696,-0.34118652,-0.42741394,-0.07884216
-1.5321808,-10.060577,-0.90715027,-0.11608887,-0.23866272,-0.098083496
-1.5442047,-11.768875,-0.70059204,-0.026901245,-0.3260193,-0.18666077
-1.2220306,-10.966217,-1.0488739,-0.25933838,-0.3049469,-0.21017456
-1.0657349,-10.331314,-1.0416718,-0.3839569,-0.22216797,-0.27615356
-0.54641724,-9.933594,-1.269867,-0.20619202,-0.1335907,-0.1787262
-0.4189911,-9.540649,-0.3090515,0.15635681,-0.12138367,-0.09838867
-0.08239746,-9.425659,0.017623901,0.3222046,-0.2631073,-0.119766235
0.10032654,-9.880875,-0.34028625,0.19270325,-0.2637024,-0.14848328
0.2710266,-9.995865,-1.0152588,0.009750366,-0.18917847,-0.22758484
0.5787964,-9.988678,-1.4091797,-0.062026978,-0.12321472,-0.2758484
0.6845856,-10.161194,-1.2914886,0.047927856,-0.14642334,-0.2743225
0.6605377,-9.933594,-1.1809998,0.14811707,-0.13482666,-0.22483826
0.59321594,-9.667633,-1.1641846,0.17193604,-0.022109985,-0.15887451
0.68937683,-9.797012,-1.2410431,0.12062073,0.06187439,-0.13900757
0.95144653,-9.928787,-1.2242279,0.062286377,0.12632751,-0.16802979
1.1822662,-9.686813,-1.370758,0.071762085,0.19902039,-0.19642639
1.1582336,-9.73233,-1.3299255,0.07235718,0.32608032,-0.20437622
0.89134216,-9.780243,-1.1761932,0.12948608,0.35205078,-0.20651245
0.49945068,-9.888062,-1.0849152,0.15422058,0.40855408,-0.1716919
0.042633057,-9.947952,-0.60691833,0.16552734,0.35263062,-0.13441467
-0.4358368,-9.823364,-0.407547,0.19392395,0.26985168,-0.1365509
-0.4959259,-9.842529,-0.7318115,0.16461182,0.27534485,-0.12892151
-0.3396454,-9.830551,-0.98402405,0.13131714,0.23106384,-0.09196472
-0.30841064,-9.928787,-0.8519287,0.16369629,0.060012817,-0.056533813
-0.012664795,-9.935974,-0.84710693,0.16062927,-0.028549194,-0.024154663
0.06666565,-9.471161,-0.7654419,0.09161377,-0.094833374,-0.019577026
0.29267883,-9.660446,-0.77745056,0.09436035,-0.11437988,-0.034225464
0.6893921,-9.967133,-0.6165161,0.1343689,-0.1275177,-0.029953003
1.0620575,-9.106995,-0.45317078,0.13925171,-0.1351471,-0.0024719238
0.67256165,-10.927887,-0.41474915,0.19941711,-0.19134521,0.05708313
0.23017883,-9.519089,-0.22018433,0.18354797,-0.14736938,0.0011901855
-0.13529968,-8.857803,-0.14091492,0.18598938,-0.0786438,-0.17015076
0.87931824,-10.4487,0.23622131,0.24371338,-0.014190674,-0.075149536
-0.41178894,-10.300156,-0.14091492,0.05557251,-0.022750854,-0.08708191
-0.046325684,-8.970413,0.036849976,0.028381348,0.09391785,-0.13380432
1.4996338,-9.689194,-0.42436218,0.16184998,0.1852417,0.081222534
-0.47669983,-10.731415,0.7982788,0.16888428,0.05329895,0.17315674
-0.3925476,-9.3441925,-0.035232544,0.038772583,0.15989685,0.09649658
-0.070373535,-9.504715,-0.1000824,0.081832886,0.14614868,0.110839844
0.22776794,-10.429535,-0.0063934326,0.14781189,0.10095215,0.11756897
0.2566223,-10.3528595,0.3587036,0.19544983,0.01725769,0.12214661
0.0017547607,-9.624512,0.63975525,0.24005127,-0.08016968,0.14413452
-0.3564911,-9.442413,0.16654968,0.1945343,0.022750854,0.16215515
-0.3396454,-9.552628,-0.20817566,0.13589478,0.18585205,0.13619995
-0.18338013,-9.701172,-0.22259521,0.13711548,0.2106018,0.077560425
-0.07998657,-9.643677,-0.1433258,0.13742065,0.16296387,0.037216187
0.03781128,-9.504715,0.3178711,0.14720154,0.10279846,0.029281616
-0.031906128,-9.890457,0.1497345,0.18843079,0.14768982,0.043029785
-0.09442139,-10.41037,0.30586243,0.2162323,0.08355713,0.07449341
0.0017547607,-10.594864,0.16896057,0.17163086,0.022460938,0.075408936
0.20132446,-10.118057,0.15214539,0.12063599,-0.05114746,0.040893555
0.3600006,-9.830566,0.2794342,0.13223267,-0.090545654,0.022567749
0.26864624,-9.739502,0.5124359,0.19148254,-0.09817505,0.020431519
0.040222168,-9.940765,0.567688,0.18965149,-0.08106995,0.01828003
0.054641724,-9.840149,0.4355774,0.12582397,-0.031600952,0.032943726
0.15803528,-9.468765,0.26983643,0.09680176,0.0016937256,0.040893555
-0.10884094,-10.14682,0.21939087,0.115737915,-0.007461548,0.0390625
-0.2434845,-9.281876,0.4764099,0.15238953,-0.092681885,-0.033935547
0.07388306,-9.916809,0.8246918,0.19361877,-0.14704895,-0.048294067
0.020980835,-10.027023,0.97843933,0.16430664,-0.12841797,-0.059906006
-0.051132202,-9.358566,0.7382355,0.08732605,0.01574707,-0.035476685
-0.21704102,-9.746704,0.78627014,0.04975891,0.098526,0.0017852783
-0.30599976,-9.717941,0.69259644,0.009750366,0.122039795,0.014312744
-0.13769531,-9.947952,0.8319092,0.011886597,0.10493469,0.007904053
-0.067977905,-9.926392,0.9087677,0.02166748,0.093933105,0.011260986
-0.1401062,-9.73233,0.8391113,0.014022827,0.11012268,0.009124756
-0.24829102,-9.77066,0.8367157,0.040603638,0.13119507,0.0042419434
-0.17855835,-9.794617,0.8607178,0.048538208,0.15686035,0.0018005371
-0.07759094,-9.823364,0.7982788,0.016159058,0.17854309,0.0051574707
-0.017486572,-9.775452,0.66856384,-0.0073547363,0.17701721,0.0051574707
-0.1304779,-9.785034,0.5556793,-0.022003174,0.16174316,0.0051574707
-0.23867798,-9.792221,0.50042725,-0.023513794,0.14767456,-0.008880615
-0.20501709,-9.840134,0.52685547,-0.016494751,0.14492798,-0.036071777
-0.06074524,-9.837753,0.56288147,-0.005203247,0.14157104,-0.04675293
-0.02468872,-9.8089905,0.5556793,-0.021392822,0.14889526,-0.03668213
-0.104034424,-9.849731,0.6925812,-0.05101013,0.11407471,-0.028121948
-0.21943665,-9.765869,0.7958832,-0.07423401,0.05757141,-0.019577026
-0.22184753,-9.837753,0.87994385,-0.09376526,0.017868042,-0.009185791
-0.13769531,-9.852112,0.82951355,-0.12095642,0.0074920654,9.0026855E-4
-0.11125183,-9.777847,0.7310333,-0.14416504,0.021240234,0.0079193115
-0.12086487,-9.926392,0.6301422,-0.12950134,0.045669556,0.0015106201
-0.15692139,-9.964722,0.52685547,-0.119125366,0.054519653,0.006088257
-0.10884094,-9.895233,0.46199036,-0.10171509,0.042617798,-9.3078613E-4
-0.2194519,-9.840149,0.40673828,-0.078811646,0.02305603,-0.005218506
-0.2819519,-9.914413,0.4403839,-0.05039978,-0.020004272,-0.012237549
-0.2843628,-9.935974,0.38513184,-0.03604126,-0.048110962,-0.010101318
-0.23626709,-9.967133,0.34429932,-0.036956787,-0.07284546,-0.0033721924
-0.17616272,-9.907227,0.30586243,-0.03543091,-0.09239197,0.00730896
-0.12808228,-9.9335785,0.20977783,-0.031463623,-0.099105835,0.008834839
0.10032654,-9.792221,0.18817139,-0.03237915,-0.10583496,0.003036499
0.27825928,-9.844925,0.25061035,-0.017730713,-0.099105835,-3.2043457E-4
0.2758484,-9.907227,0.30827332,-0.016189575,-0.07498169,0.0079193115
0.08589172,-9.693985,0.22419739,-0.0143585205,-0.058792114,0.0014953613
0.0041656494,-9.425644,0.23860168,-0.003982544,-0.047790527,-0.03239441
-0.05834961,-9.801819,0.34429932,0.01159668,-0.059402466,-0.08493042
-0.07998657,-9.9335785,0.26983643,-0.010406494,-0.030700684,-0.09225464
-0.15933228,-9.88327,0.30586243,-0.06262207,-0.025497437,-0.06906128
-0.19299316,-9.931198,0.31547546,-0.07974243,-0.04107666,-0.043701172
-0.07998657,-9.885666,0.37312317,-0.09072876,-0.041381836,-0.034225464
0.03541565,-9.849731,0.46681213,-0.09011841,-0.050231934,-0.033309937
0.20852661,-9.979111,0.5148468,-0.08279419,-0.04107666,-0.032699585
0.29988098,-9.974304,0.4788208,-0.06813049,-0.027633667,-0.01713562
0.2349701,-10.005463,0.33950806,-0.043395996,-0.009307861,0.004562378
0.15803528,-9.974304,0.15693665,-0.012542725,-0.0025939941,0.012802124
0.049835205,-9.892838,0.010421753,0.004257202,-0.009002686,0.010971069
-0.05354309,-9.777847,-0.16493225,0.00730896,-0.0050354004,0.0024261475
0.040222168,-9.799408,-0.21777344,0.01953125,0.004425049,0.0033416748
0.011367798,-9.789825,-0.21537781,0.020431519,0.022445679,0.010360718
0.17007446,-9.746704,-0.04963684,0.031433105,0.033447266,0.011276245
0.2421875,-9.717941,0.06326294,0.017089844,0.07040405,0.015548706
0.2109375,-9.820969,0.1497345,0.003036499,0.08047485,0.0018005371
0.18447876,-10.094101,0.2290039,0.009750366,0.08293152,-0.015289307
0.20852661,-9.876083,0.2722473,-0.0058135986,0.101257324,-0.011016846
0.09552002,-9.693985,0.30827332,0.004562378,0.11193848,-0.0058288574
-0.08961487,-9.844925,0.33468628,0.03173828,0.10064697,-0.003692627
-0.070373535,-9.737106,0.23381042,0.022583008,0.09971619,0.0039520264
0.006576538,-9.926392,0.29145813,0.009750366,0.079574585,-0.0027618408
0.25901794,-10.012634,0.2818451,0.0012054443,0.07711792,-0.003692627
0.2806549,-9.907227,0.13772583,-0.025375366,0.08781433,5.950928E-4
-0.07519531,-9.564606,0.1857605,-0.014373779,0.062469482,-9.3078613E-4
-0.33003235,-9.643677,0.2650299,0.020751953,0.039245605,-0.028427124
-0.28675842,-9.813782,0.32028198,0.010055542,0.037719727,-0.037582397
-0.18818665,-9.895248,0.2506256,-0.02720642,0.038024902,-0.016830444
-0.22665405,-9.897644,0.2290039,-0.04612732,0.022445679,0.00730896
0.018569946,-10.000656,0.27703857,-0.041229248,-0.012664795,0.01737976
0.22535706,-9.8089905,0.26983643,-0.050094604,0.004119873,0.029907227
0.16766357,-9.943176,0.35391235,-0.010406494,0.007797241,0.01737976
0.20132446,-9.852127,0.32028198,0.022903442,0.056655884,0.0012054443
0.049835205,-9.864105,0.29145813,0.024734497,0.08720398,0.008224487
-0.08959961,-9.797012,0.26023865,0.02168274,0.09666443,0.010055542
-0.07759094,-9.761078,0.31066895,-0.0012207031,0.08720398,0.012191772
-0.039123535,-9.773056,0.33709717,-0.029327393,0.06918335,0.010971069
-0.12086487,-9.864105,0.33709717,-0.033599854,0.048721313,0.0076141357
-0.14491272,-9.916809,0.26023865,-0.034820557,0.037109375,0.005783081
-0.04875183,-10.201935,0.20018005,-0.047348022,0.036499023,0.012191772
0.13400269,-9.7035675,0.18334961,-0.08705139,0.020324707,0.032669067
-0.007873535,-9.646057,-0.0015869141,-0.08981323,0.020614624,0.058929443
-0.0030517578,-9.912018,0.14253235,-0.016204834,0.004119873,0.037246704
-0.05834961,-9.705963,0.07046509,-0.009780884,0.01725769,0.020141602
-0.2603302,-9.468765,-0.040039062,0.005493164,0.010238647,0.013717651
-0.16894531,-9.60054,-0.073654175,0.02809143,-0.009933472,0.020446777
-0.10644531,-9.943161,0.077682495,0.009155273,-0.082611084,0.03968811
-0.22424316,-10.139633,-0.020812988,-0.026275635,-0.14126587,0.045791626
-0.13768005,-10.007858,-0.33306885,-0.05529785,-0.13575745,0.022888184
0.10032654,-9.945572,-0.4411621,-0.06689453,-0.12782288,0.0039520264
0.23738098,-10.024628,-0.28022766,-0.07392883,-0.1104126,0.024719238
0.23979187,-9.897644,0.09928894,-0.07147217,-0.07865906,0.03540039
0.2878723,-9.871277,0.40914917,-0.031463623,-0.028244019,0.0289917
0.3191223,-10.0581665,0.49803162,-9.3078613E-4,0.052383423,0.019515991
0.18930054,-10.072556,0.46199036,0.006713867,0.08811951,0.022583008
-0.14971924,-9.883255,0.22419739,0.01159668,0.09820557,0.03479004
-0.34446716,-10.0581665,-0.04724121,0.041534424,0.107055664,0.030822754
-0.19299316,-9.820969,-0.08807373,0.07757568,0.1116333,0.020751953
-0.06315613,-9.8089905,0.010421753,0.1224823,0.12538147,0.017074585
-0.099227905,-9.832947,0.123306274,0.14872742,0.16294861,0.012191772
-0.20742798,-9.725128,0.11608887,0.115448,0.19136047,-9.460449E-4
-0.19059753,-9.569397,0.034439087,0.046722412,0.21090698,-0.03086853
-0.21704102,-10.010239,0.012832642,0.01159668,0.2106018,-0.043395996
-0.29397583,-10.079727,-0.011199951,0.008850098,0.20539856,-0.07148743
-0.32763672,-9.983902,0.17855835,0.023208618,0.18157959,-0.123428345
-0.23387146,-10.089325,0.27703857,0.06504822,0.1186676,-0.15304565
0.07388306,-10.415161,0.16174316,0.081848145,0.101257324,-0.1658783
0.2421875,-10.379227,-0.109695435,0.09529114,0.16142273,-0.20924377
0.5836029,-10.22348,-0.18415833,0.15332031,0.17791748,-0.23582458
0.8697052,-9.71315,0.06567383,0.2379303,0.10858154,-0.15060425
1.0933075,-9.293869,0.3178711,0.30236816,0.054519653,-0.053466797
0.937027,-9.214813,0.52204895,0.38087463,0.053604126,0.03907776
0.6990051,-9.365753,0.53645325,0.44561768,0.06123352,0.07237244
0.51145935,-9.368149,0.58929443,0.5244293,0.060317993,0.107177734
0.48742676,-9.531067,0.887146,0.6334686,0.029785156,0.13772583
0.60765076,-10.218689,1.0769196,0.72875977,-0.042297363,0.16796875
0.49223328,-10.903931,0.6877899,0.698822,-0.15867615,0.20980835
-0.007858276,-11.109985,0.6445465,0.641098,-0.3605652,0.23728943
-0.6594238,-11.253738,1.9128265,0.8768921,-0.7108917,0.28341675
-0.6498108,-10.853622,2.5349426,1.2983856,-0.81321716,0.4920349
-0.5800934,-9.473572,2.873642,1.6979065,-0.72280884,0.7128601
-0.33244324,-7.101593,2.1674347,2.0283813,-0.3419342,0.9126129
1.5573273,-5.460388,0.123306274,2.1951447,0.80101013,0.9156647
-0.29638672,-6.8572235,2.4796906,1.8823853,0.31658936,0.41383362
-2.7944336,-9.909622,3.5077667,1.3277283,-0.26678467,0.21072388
-1.9240875,-10.257034,2.578186,1.069931,-0.0025939941,0.4358368
-0.6017151,-10.060577,3.459732,1.0448761,-0.12568665,0.44102478
0.69659424,-8.912918,3.707138,1.3979797,0.06430054,0.32312012
1.2014923,-7.449005,4.857712,1.9126282,0.26679993,0.25624084
0.31672668,-6.301346,4.5718536,2.090088,0.48243713,0.41078186
-0.72435,-5.8389435,4.0506134,1.8655853,0.47572327,0.57662964
-0.9431305,-7.0991974,4.8168793,1.5858154,0.48335266,0.541214
-1.0945892,-7.928192,5.9338074,1.5968018,0.37553406,0.5683899
-0.57048035,-8.167786,4.57666,1.6826324,0.7585449,0.58213806
-1.1330719,-7.8994446,4.9513702,1.6417084,0.84773254,0.5644226
-3.1190033,-7.6286926,4.9249573,1.5934448,0.72984314,0.60443115
-4.299515,-7.094406,4.045807,1.4895935,0.684021,0.670105
-3.3426208,-6.7062683,4.52623,1.5018158,0.4060669,0.7027893
-2.2799225,-6.675125,6.553543,1.5735931,-0.10064697,0.7302704
-1.9433289,-7.2285767,7.2309113,1.5232086,-0.008087158,0.677124
-2.4434052,-7.0464935,6.3589783,1.37323,0.34376526,0.59342957
-2.9218597,-7.345978,6.421417,1.3271027,0.4512787,0.55311584
-2.563614,-7.3339996,6.046692,1.3521423,0.44517517,0.6184845
-2.3881073,-6.5984497,6.3950043,1.2702942,0.3443756,0.71987915
-3.3666534,-6.210312,7.0651703,1.2168427,0.07833862,0.8286133
-3.9797516,-6.191147,7.341385,1.24617,0.065826416,0.87168884
-3.2127686,-5.678421,7.2285004,1.2702942,0.015716553,0.8591614
-2.1789398,-4.988388,7.953903,1.2980804,-0.02947998,0.798996
-2.73674,-4.8206787,7.901062,1.3814697,0.06796265,0.72262573
-4.1432343,-5.029114,7.8145905,1.3897247,0.1174469,0.68873596
-4.198532,-4.7871246,8.141266,1.3726196,0.10644531,0.7189636
-3.6383362,-3.2273865,8.321411,1.35643,0.029464722,0.7366791
-3.6190948,-3.1171722,8.153275,1.3927765,0.024276733,0.68200684
-4.4317474,-2.9758148,8.453522,1.4508057,0.050857544,0.648407
-4.847687,-2.84404,8.86908,1.4752502,-0.030380249,0.638031
-4.576004,-2.3241272,9.265411,1.451416,-0.12385559,0.66581726
-5.040039,-1.6700287,9.741028,1.3607025,-0.029769897,0.74554443
-5.81662,-1.0518799,10.492844,1.2531891,0.02305603,0.8897095
-5.9656982,-0.42893982,11.542526,1.1175842,0.13363647,0.9892731
-5.3574066,-0.17497253,11.561752,0.9602661,0.29948425,1.0268555
-4.7539215,-0.80029297,11.388809,0.70310974,0.30039978,0.9275818
-4.2273865,-0.6996765,10.514465,0.4636383,0.28512573,0.7776184
-3.955719,-0.5175781,9.661743,0.2797699,0.30619812,0.66215515
-3.9580994,-0.5583191,8.835449,0.20249939,0.33399963,0.58091736
-4.402893,-0.8506317,8.794617,0.21165466,0.20968628,0.4718628
-4.8092194,-0.2204895,8.511169,0.23059082,0.062454224,0.3527527
-4.833267,0.70433044,8.56163,0.26449585,-0.104003906,0.2128601
-4.900589,0.5222473,8.80423,0.31886292,-0.28297424,0.045791626
-4.965515,0.47911072,9.267822,0.349411,-0.46899414,-0.07699585
-5.1362,0.61569214,9.620926,0.32894897,-0.5688629,-0.1695404
-4.8068085,0.6947632,9.4383545,0.30358887,-0.552063,-0.25964355
-4.275467,0.5749512,9.392715,0.30604553,-0.54473877,-0.30148315
-3.7946167,-0.028823853,9.253403,0.29136658,-0.41401672,-0.31095886
-3.6864166,-0.3283081,9.032425,0.27456665,-0.20539856,-0.2837677
-3.8595276,-0.44812012,8.9891815,0.33261108,-0.13148499,-0.21994019
-3.8715515,-0.63739014,9.551254,0.41752625,-0.17974854,-0.1435852
-3.717682,-1.2363586,10.370346,0.41537476,-0.21211243,-0.018356323
-3.7849884,-1.1956329,10.305481,0.40286255,-0.08934021,0.109313965
-4.1696777,-0.60624695,9.918762,0.41264343,0.007171631,0.22966003
-4.3596344,-0.036010742,9.73381,0.45204163,0.09269714,0.2644806
-4.2369995,0.045455933,9.265411,0.35887146,0.24725342,0.23944092
-3.8234558,-0.21809387,8.631287,0.25442505,0.35476685,0.20339966
-3.6888275,-0.4025879,8.431915,0.20249939,0.33337402,0.2128601
-3.8138428,0.0071258545,8.508774,0.17500305,0.19868469,0.2568512
-4.220169,0.37609863,8.410294,0.18722534,0.034973145,0.24798584
-3.7873993,1.1523743,9.680969,0.18844604,-0.15592957,0.20095825
-3.489273,0.40724182,8.924332,0.173172,0.006866455,0.0980072
-3.3907013,0.77381897,8.417496,0.13896179,0.109191895,0.048538208
-3.3979034,0.84091187,8.208527,0.09559631,0.13392639,0.03540039
-3.4868622,0.83851624,8.400681,0.10322571,0.15837097,0.007598877
-3.6143036,1.1236267,8.371857,0.09223938,0.14920044,-0.032104492
-3.717682,1.2481995,8.124466,0.014663696,0.12385559,-0.07974243
-3.5373688,1.423111,8.364655,-0.09498596,0.04260254,-0.13471985
-3.352234,1.686676,8.134048,-0.1566925,0.099731445,-0.18908691
-3.7801971,1.6052094,7.6656647,-0.18418884,0.06918335,-0.24650574
-4.2514343,1.212265,7.7425385,-0.25169373,-0.06765747,-0.3363037
-4.203354,0.4958954,8.023575,-0.36683655,-0.12843323,-0.4340515
-4.1696777,0.32339478,8.4943695,-0.44288635,-0.16203308,-0.49299622
-4.157669,-0.24206543,9.217377,-0.4734497,-0.20295715,-0.5137634
-4.1192017,-0.32591248,10.360733,-0.48382568,-0.10858154,-0.49665833
-5.1650543,-3.7472992,13.94455,-0.450531,0.0025939941,-0.44259644
-7.3144836,-7.6023407,13.111053,0.27212524,0.09819031,-0.2089386
-5.234787,3.567459,9.361481,0.89611816,-0.1592865,0.16368103
-3.7970123,1.8687592,7.6776886,-0.23031616,-0.05909729,-0.0070648193
-2.0635223,-1.0758514,5.604721,-0.43588257,0.5804901,-0.2614746
-2.7655792,-0.61102295,7.0147095,-0.051345825,0.24389648,-0.15029907
-4.4774323,-0.2684021,9.544052,0.02746582,-0.25335693,-0.01651001
-4.881363,-0.9871979,10.581726,-0.078826904,-0.22555542,-0.01927185
-4.987152,-1.6820068,10.430389,-0.0067443848,-0.09208679,-0.042785645
-4.7996063,-0.1917572,9.512817,0.1267395,-0.097595215,0.02166748
-4.2297974,0.023895264,8.636078,-0.017440796,-0.030395508,-0.018356323
-3.6287231,-0.53915405,8.292603,-0.08798218,0.08720398,-0.10508728
-3.5686188,-0.6661377,8.549622,5.79834E-4,-0.020004272,-0.1164093
-3.910019,-0.5750885,9.056442,0.054031372,-0.1669159,-0.0605011
-4.0807343,-0.32112122,9.390335,0.058624268,-0.23350525,-0.010406494
-4.030243,-0.27560425,9.409531,0.04273987,-0.18585205,-0.010406494
-4.0110016,-0.3043518,9.265411,0.010055542,-0.086883545,-0.032089233
-3.9725342,-0.31874084,9.169342,-0.003692627,-0.023361206,-0.045532227
-3.7753754,-0.36424255,9.075668,0.004547119,-0.0050354004,-0.044921875
-3.6190948,-0.3762207,9.010788,-0.002166748,-0.02519226,-0.027511597
-3.736908,-0.42893982,9.039627,-0.01071167,-0.052078247,-0.0055236816
-3.9436798,-0.42893982,9.224579,-0.0018615723,-0.059402466,0.008834839
-3.9845734,-0.39779663,9.347092,0.006378174,-0.03253174,0.008834839
-3.9052124,-0.40498352,9.272629,-9.460449E-4,0.0016784668,-3.2043457E-4
-3.7753906,-0.45291138,9.1188965,-0.013442993,0.014511108,-0.010406494
-3.7224884,-0.50801086,9.022797,-0.016189575,0.023666382,-0.015289307
-3.7681732,-0.4960327,9.090057,-0.0051879883,0.012374878,-0.012237549
-3.857132,-0.47447205,9.183746,0.008544922,-4.5776367E-4,-0.009796143
-3.8811646,-0.44812012,9.238998,0.010070801,0.0056610107,-0.01071167
-3.8931885,-0.44093323,9.188553,0.0048828125,0.015731812,-0.014678955
-3.8402863,-0.45051575,9.1285095,6.1035156E-4,0.023071289,-0.017425537
-3.8378906,-0.45051575,9.087677,-3.0517578E-4,0.021224976,-0.017120361
-3.8811646,-0.4385376,9.092468,0.004562378,0.008712769,-0.013153076
-3.9701233,-0.45051575,9.128494,0.00793457,7.6293945E-4,-0.008880615
-4.0037994,-0.43373108,9.1188965,0.008544922,0.005645752,-0.0067443848
-3.9989777,-0.40498352,9.114075,0.008239746,0.011459351,-0.006439209
-3.9917755,-0.38819885,9.099686,0.0051727295,0.0129852295,-0.003692627
-3.9701233,-0.38581848,9.102066,0.0030517578,0.011154175,2.746582E-4
-3.9580994,-0.39300537,9.109283,6.1035156E-4,0.0056610107,0.0048675537
-3.9629211,-0.41456604,9.152512,2.89917E-4,7.6293945E-4,0.0076141357
-3.9508972,-0.4193573,9.145309,-0.0012359619,0.004119873,0.008834839
-3.953308,-0.41696167,9.111694,-0.0033569336,0.006576538,0.008529663
-3.9460907,-0.42175293,9.121292,-0.0033569336,0.00289917,0.007003784
-3.9340668,-0.44570923,9.133301,-6.1035156E-4,-0.001373291,0.0048675537
-3.919632,-0.43373108,9.152527,0.0,-0.005645752,0.0024261475
-3.9148254,-0.42893982,9.152527,-6.1035156E-4,-0.008087158,-3.2043457E-4
-3.897995,-0.41456604,9.140518,9.1552734E-4,-0.008087158,-0.0021514893
-3.9052124,-0.4025879,9.114075,0.0024414062,-0.009002686,-0.0043029785
-3.9148254,-0.395401,9.123703,0.0033416748,-0.007171631,-0.0067443848
-3.9148407,-0.39060974,9.142929,0.004272461,-0.004425049,-0.009490967
-3.9052277,-0.42655945,9.171738,0.0033416748,-4.5776367E-4,-0.008880615
-3.9388733,-0.47447205,9.176544,0.0021362305,0.002609253,-0.008575439
-3.9028168,-0.3786316,9.140518,0.005783081,-0.00289917,-0.005218506
-3.8931885,-0.47685242,9.06366,-0.0033721924,0.009017944,-0.0046081543
-3.919632,-0.39779663,9.128494,-0.0015411377,0.0074768066,-0.0027618408
-3.9412842,-0.42655945,9.150116,0.003967285,-0.0038146973,-3.0517578E-5
-3.9484863,-0.4241333,9.162125,0.0015258789,0.0010681152,0.0012054443
-3.929245,-0.40977478,9.135712,-3.0517578E-4,0.004425049,-1.5258789E-5
-3.9268646,-0.43614197,9.116486,-0.0033721924,0.011154175,-3.2043457E-4
-3.9172516,-0.40977478,9.1285095,-0.0015411377,0.005050659,5.950928E-4
-3.9388733,-0.42414856,9.1188965,-0.0015258789,4.5776367E-4,2.89917E-4
-3.9460907,-0.42175293,9.121292,-3.0517578E-4,-0.0010681152,-0.0015411377
-3.9725342,-0.4433136,9.140518,0.0018310547,-0.0038146973,-0.0030822754
-3.9605103,-0.43614197,9.154938,0.0030517578,-0.004425049,-0.0027618408
-3.9340668,-0.42655945,9.128494,9.1552734E-4,-0.0032043457,-0.003692627
-3.9244537,-0.4265442,9.128494,6.1035156E-4,-0.0019836426,-0.0027618408
-3.9220428,-0.4193573,9.130905,0.0024414062,-0.0035095215,-0.0012512207
-3.9172363,-0.42893982,9.152527,0.0018310547,-0.004425049,-9.3078613E-4
-3.9292603,-0.4265442,9.145309,6.1035156E-4,-0.005340576,5.950928E-4
-3.9340668,-0.42175293,9.130905,-0.0015258789,-0.0016784668,5.950928E-4
-3.919632,-0.41696167,9.130905,2.89917E-4,-4.5776367E-4,5.950928E-4
-3.9148407,-0.42175293,9.130905,0.0012207031,-0.0019836426,5.950928E-4
-3.9148407,-0.4193573,9.133301,9.1552734E-4,-0.001373291,-3.2043457E-4
-3.9220428,-0.41696167,9.1285095,9.0026855E-4,-0.001373291,-3.3569336E-4
-3.9220428,-0.4265442,9.133301,3.0517578E-4,4.5776367E-4,-6.4086914E-4
-3.910019,-0.41456604,9.138107,0.0012207031,-4.5776367E-4,-0.0012512207
-3.9172516,-0.42893982,9.135712,2.89917E-4,0.001373291,-0.0012512207
-3.9244537,-0.41456604,9.135712,0.0012054443,-1.5258789E-4,-0.0012512207
-3.9388733,-0.42893982,9.128494,8.8500977E-4,4.5776367E-4,-3.2043457E-4
-3.9388733,-0.4193573,9.138107,-1.5258789E-5,0.0016784668,-3.2043457E-4
-3.929245,-0.43373108,9.14772,-1.5258789E-5,0.0016784668,-9.460449E-4
-3.9460907,-0.4385376,9.152527,-3.3569336E-4,0.0019989014,-0.0012512207
-3.9340668,-0.43852234,9.140503,-0.0018463135,0.0016784668,-0.0012512207
-3.9388733,-0.42655945,9.126099,-0.0015411377,0.0016784668,-0.0015411377
-3.931656,-0.41215515,9.106873,-1.5258789E-5,-7.6293945E-4,-3.2043457E-4
-3.9412842,-0.40975952,9.150116,0.0018157959,-0.0025939941,-0.0015411377
-3.9364777,-0.39779663,9.162125,0.0027313232,-0.0038146973,-0.0024719238
-3.9148407,-0.4025879,9.109283,2.89917E-4,0.001373291,-0.0030822754
-3.876358,-0.43373108,9.104477,-0.0018615723,0.0025939941,-0.0012512207
-3.9364777,-0.49842834,9.214981,-0.0018463135,0.0019836426,-0.0012512207
-3.9028168,-0.3283081,9.142914,0.008834839,-0.00869751,-1.5258789E-5
-3.9340668,-0.49842834,9.04924,-0.0073547363,0.011459351,2.746582E-4
-3.888382,-0.37382507,9.166931,0.0015106201,0.00932312,-0.0024719238
-3.9340668,-0.4624939,9.1645355,0.0039520264,0.0010681152,-6.4086914E-4
-3.9340668,-0.43611145,9.152527,-6.2561035E-4,0.004119873,0.0012054443
-3.8955994,-0.40498352,9.109283,-0.0021514893,0.004425049,5.950928E-4
-3.919632,-0.44812012,9.104477,-0.003692627,0.009017944,-3.2043457E-4
-3.9460907,-0.42414856,9.1549225,-0.0018463135,0.004135132,-6.4086914E-4
-3.9773407,-0.41456604,9.157318,0.0024261475,1.6784668E-4,-0.0018615723
-3.9508972,-0.4025879,9.094864,0.002105713,-1.5258789E-4,-0.0033721924
-3.9508972,-0.44812012,9.121292,2.89917E-4,0.005340576,-0.00491333
-3.9412842,-0.45051575,9.140503,0.0024261475,0.0035095215,-0.0046081543
-3.9268646,-0.42655945,9.128494,0.0030517578,0.0016784668,-0.002166748
-3.9244537,-0.43614197,9.123703,6.1035156E-4,-1.5258789E-4,-0.0012512207
-3.9340668,-0.42175293,9.14772,3.0517578E-4,-7.6293945E-4,2.89917E-4
-3.9148254,-0.43373108,9.140503,0.0,-0.0035095215,2.89917E-4
-3.9268646,-0.4145813,9.126099,-3.2043457E-4,-0.0047302246,0.0021209717
-3.900406,-0.42175293,9.116486,2.89917E-4,-0.0022888184,0.0018157959
-3.919632,-0.43133545,9.138107,-3.0517578E-4,0.0010681152,0.0012054443
-3.9124298,-0.40737915,9.142914,0.0024414062,-0.0038146973,0.0018157959
-3.9148407,-0.4193573,9.140518,0.0018310547,-0.0025939941,2.89917E-4
-3.907608,-0.41456604,9.133301,0.0015258789,0.001373291,-3.3569336E-4
-3.9172363,-0.43133545,9.135712,3.0517578E-4,0.0010681152,-6.4086914E-4
-3.931656,-0.43373108,9.142929,0.0015258789,4.5776367E-4,-1.5258789E-5
-3.931656,-0.40975952,9.123703,0.0012207031,-0.0010681152,2.89917E-4
-3.9340668,-0.4385376,9.126083,6.1035156E-4,0.0035095215,-0.002166748
-3.9292603,-0.41456604,9.145309,0.002746582,4.5776367E-4,-0.0012512207
-3.9364777,-0.42893982,9.111679,6.1035156E-4,0.0022888184,-0.0012512207
-3.931656,-0.41215515,9.116486,0.0,7.6293945E-4,-0.0012512207
-3.9460907,-0.43133545,9.123703,0.0021209717,-0.0010681152,-9.460449E-4
-3.9508972,-0.42893982,9.140518,3.0517578E-4,-0.0010681152,-9.460449E-4
-3.9388733,-0.40977478,9.123703,9.0026855E-4,-0.0032043457,-9.460449E-4
-3.943695,-0.43133545,9.111679,0.0,-0.00289917,-3.2043457E-4
-3.919632,-0.42893982,9.1645355,9.1552734E-4,-7.6293945E-4,-9.3078613E-4
-3.9412842,-0.42414856,9.138107,0.0021362305,-0.0016784668,2.89917E-4
-3.9292603,-0.42893982,9.133301,-0.0015258789,0.0016784668,2.89917E-4
-3.9148254,-0.43373108,9.123703,-0.0015258789,7.6293945E-4,-6.4086914E-4
-3.9172363,-0.42175293,9.140518,0.0,-4.5776367E-4,2.89917E-4
-3.929245,-0.41456604,9.14772,6.1035156E-4,-0.0022888184,2.89917E-4
-3.907608,-0.40975952,9.128494,-9.1552734E-4,-4.5776367E-4,-3.2043457E-4
-3.8932037,-0.42175293,9.142914,2.89917E-4,0.0010681152,-0.0018615723
-3.9172363,-0.43614197,9.145309,2.89917E-4,0.0022888184,-0.0012512207
-3.9244537,-0.41215515,9.157318,9.1552734E-4,0.0019836426,-6.4086914E-4
-3.9268646,-0.43373108,9.123703,6.1035156E-4,0.004425049,-9.3078613E-4
-3.931656,-0.4385376,9.145309,-6.1035156E-4,0.0050354004,-6.4086914E-4
-3.9388733,-0.42655945,9.138107,2.89917E-4,-4.4250488E-4,2.89917E-4
-3.9460907,-0.42414856,9.133301,-0.002456665,0.0022888184,5.950928E-4
-3.9268646,-0.42175293,9.1188965,6.1035156E-4,7.7819824E-4,-6.4086914E-4
-3.9436798,-0.45529175,9.140503,0.0015258789,0.004425049,-0.0015563965
-3.9436798,-0.44091797,9.157318,0.0018310547,4.5776367E-4,-0.0024719238
-3.9172516,-0.43373108,9.123703,-9.3078613E-4,-0.0010681152,-0.0015411377
-3.9052124,-0.43133545,9.109283,-0.0018310547,0.0035095215,-6.4086914E-4
-3.9484863,-0.40498352,9.128494,0.0024414062,-0.0032043457,-9.460449E-4
-3.9364777,-0.41696167,9.145309,0.0030517578,-0.004119873,-0.0018615723
-3.9292603,-0.42414856,9.14772,0.0030517578,-0.0016784668,-0.0024719238
-3.897995,-0.43373108,9.121292,0.0,0.0032043457,-0.0030822754
-3.907608,-0.44091797,9.128494,-9.3078613E-4,0.0044403076,-0.0015563965
-3.9244537,-0.42414856,9.14772,0.0012207031,0.001373291,5.950928E-4
-3.9316711,-0.45529175,9.133301,3.0517578E-4,0.0035095215,0.0018157959
-3.931656,-0.42893982,9.133301,6.1035156E-4,7.6293945E-4,0.0015106201
-3.9124298,-0.41696167,9.109283,-3.0517578E-4,0.0019836426,0.0015106201
-3.9244537,-0.43614197,9.1188965,-6.1035156E-4,0.0050354004,0.0015106201
-3.9508972,-0.41696167,9.142914,0.0024414062,-0.0010681152,0.0018157959
-3.953308,-0.42175293,9.138107,0.0021362305,-0.0025939941,2.89917E-4
-3.9412842,-0.41696167,9.121292,5.950928E-4,0.0013885498,-9.3078613E-4
-3.9508972,-0.43133545,9.1285095,9.0026855E-4,0.001083374,-0.002166748
-3.9580994,-0.4265442,9.111694,0.0018157959,7.7819824E-4,-0.0012512207
-3.9388733,-0.42655945,9.130905,0.0015106201,-0.0025787354,-6.4086914E-4
-3.953308,-0.42414856,9.140503,0.0012054443,-0.003189087,-0.0012512207
-3.9460907,-0.4265442,9.135712,8.8500977E-4,-0.0019683838,-0.0012512207
-3.9172516,-0.42414856,9.068451,-9.460449E-4,-0.001663208,-6.4086914E-4
-3.919632,-0.43373108,9.1188965,-0.0018463135,1.8310547E-4,-1.5258789E-5
-3.9412842,-0.44093323,9.159729,0.0014953613,-0.0050201416,0.0018157959
-3.9388733,-0.41456604,9.138107,0.0014953613,-0.00440979,0.0024261475
-3.9124298,-0.42175293,9.109283,-9.3078613E-4,-4.4250488E-4,2.89917E-4
-3.9124298,-0.41696167,9.145309,-3.2043457E-4,1.6784668E-4,-6.4086914E-4
-3.9052124,-0.41456604,9.142914,0.0021209717,-0.0019683838,-1.5258789E-5
-3.9148254,-0.42414856,9.142914,5.950928E-4,-0.0022735596,-1.5258789E-5
-3.9148407,-0.42893982,9.142914,5.950928E-4,-0.0019683838,-1.5258789E-5
-3.907608,-0.42893982,9.142914,-3.3569336E-4,0.0044403076,5.950928E-4
-3.9172516,-0.42175293,9.133301,8.8500977E-4,0.0038452148,-1.5258789E-5
-3.9364777,-0.43373108,9.116486,-6.2561035E-4,0.005065918,-0.0012512207
-3.9268646,-0.4193573,9.099686,5.950928E-4,0.0016937256,-9.460449E-4
-3.9220428,-0.42655945,9.1188965,-9.460449E-4,0.001083374,-9.3078613E-4
-4.0542755,-0.519989,9.287033,5.79834E-4,0.0035247803,-6.4086914E-4
-3.8619232,-0.27079773,9.082855,0.014328003,-0.018463135,-6.2561035E-4
-3.8859863,-0.5511322,8.979584,-0.018951416,0.030410767,-0.005218506
-3.9557037,-0.38581848,9.289429,0.0076141357,-0.0068511963,5.950928E-4
-3.9580994,-0.43614197,9.090057,0.008224487,-0.014801025,0.0021209717
-3.9340668,-0.4193573,9.1188965,-0.008575439,0.0071868896,0.0021209717
-3.941269,-0.4025879,9.1285095,0.0048828125,-0.010528564,-3.2043457E-4
-3.9268646,-0.4433136,9.157318,-3.2043457E-4,0.007797241,-0.0018615723
-3.910019,-0.40498352,9.142914,6.1035156E-4,-0.0062561035,-0.0012512207
-3.9172516,-0.46966553,9.14772,0.0,-0.0025939941,5.950928E-4
-3.9028168,-0.39300537,9.145309,6.1035156E-4,-0.0038146973,5.950928E-4
-3.9244537,-0.44570923,9.133301,-0.0018463135,0.004135132,-3.3569336E-4
-3.9244537,-0.395401,9.130905,0.0018310547,0.0023040771,-0.0015563965
-3.907608,-0.41456604,9.116486,9.1552734E-4,0.0016784668,-0.0027618408
-3.9316711,-0.42893982,9.166946,0.0012207031,0.004135132,-0.0015563965
-3.919632,-0.41456604,9.150116,0.0018310547,-4.5776367E-4,-6.4086914E-4
-3.9340668,-0.45051575,9.121292,-0.0012207031,0.005050659,-3.3569336E-4
-3.929245,-0.4433136,9.130905,0.0021209717,0.0016784668,-3.2043457E-4
-3.9364777,-0.44091797,9.11409,6.1035156E-4,0.0044403076,-9.460449E-4
-3.953308,-0.43614197,9.133301,3.0517578E-4,0.002609253,-1.5258789E-5
-3.9436798,-0.43133545,9.130905,0.0024414062,-0.0019836426,-3.3569336E-4
-3.953308,-0.44093323,9.142914,-3.0517578E-4,0.0019989014,-3.3569336E-4
-3.9268646,-0.4121704,9.135712,0.0012207031,-4.5776367E-4,-3.2043457E-4
-3.9340668,-0.43133545,9.123703,0.0,0.0022888184,-3.2043457E-4
-3.9508972,-0.42893982,9.142914,3.0517578E-4,-0.0022888184,-1.5258789E-5
-3.9484863,-0.42414856,9.116486,9.0026855E-4,-0.00289917,-1.5258789E-5
-3.9484863,-0.42414856,9.150116,9.0026855E-4,-0.0016784668,-3.2043457E-4
-3.931656,-0.41215515,9.130905,0.0012207031,-0.0025939941,-0.0015411377
-3.9244537,-0.42175293,9.116486,-6.1035156E-4,4.5776367E-4,-0.0018615723
-3.9292603,-0.4241333,9.145309,0.0,-0.001373291,-9.460449E-4
-3.919632,-0.41696167,9.130905,0.0012207031,-0.0016784668,-1.5258789E-5
-3.9172516,-0.44093323,9.128494,-6.1035156E-4,7.6293945E-4,-3.3569336E-4
-3.9292603,-0.40498352,9.14772,0.0015106201,-0.0010528564,-1.5258789E-5
-3.9124298,-0.43852234,9.123703,-1.5258789E-5,7.7819824E-4,-3.2043457E-4
-3.9244537,-0.4265442,9.138107,-3.2043457E-4,0.0035247803,-6.4086914E-4
-3.9244537,-0.4385376,9.133301,0.0024261475,7.9345703E-4,-6.4086914E-4
-3.9244537,-0.45529175,9.14772,-6.2561035E-4,0.0044403076,-6.4086914E-4
-3.931656,-0.43614197,9.133301,5.950928E-4,0.0023040771,0.0015106201
-3.9388733,-0.43373108,9.140503,-3.2043457E-4,0.0023040771,0.0018157959
-3.9580994,-0.4193573,9.126099,-0.0012359619,0.0016937256,0.0027313232
-3.9484863,-0.37384033,9.104477,-9.3078613E-4,-0.0028839111,0.0021209717
-3.9484863,-0.36904907,9.116486,5.950928E-4,-4.4250488E-4,5.950928E-4
-3.9797516,-0.39778137,9.157318,0.0012054443,-0.0019683838,-0.0018615723
-3.9773407,-0.4193573,9.150116,-9.460449E-4,-0.0028839111,-0.0024719238
-3.9580994,-0.4672699,9.140518,-0.0045928955,4.7302246E-4,-6.2561035E-4
-3.943695,-0.45289612,9.126099,-0.0055236816,-7.4768066E-4,0.0018157959
-3.9220428,-0.42655945,9.08046,-0.0043029785,0.0023040771,0.0015106201
-3.9172363,-0.40977478,9.1285095,-0.0015563965,-1.373291E-4,0.0021209717
-3.907608,-0.39060974,9.162125,0.0012054443,-0.0025787354,0.0015106201
-3.9028168,-0.44812012,9.1549225,-9.460449E-4,0.0016937256,9.0026855E-4
-3.8955994,-0.45768738,9.157318,-0.0027770996,0.006591797,2.89917E-4
-3.888382,-0.4624939,9.135712,-0.0030822754,0.006591797,5.950928E-4
-3.9148254,-0.4672699,9.142914,-0.0021514893,0.0059814453,2.89917E-4
-3.9316711,-0.4433136,9.138107,0.0012054443,0.0023040771,-9.3078613E-4
-3.9460907,-0.44570923,9.128494,0.0018157959,0.0032348633,-0.0033721924
-3.931656,-0.45051575,9.150116,0.003326416,0.0032348633,-0.0030822754
-3.9220428,-0.43133545,9.130905,0.0014953613,0.0044403076,-0.002166748
-3.9292603,-0.43373108,9.130905,2.89917E-4,0.0056762695,-0.0015563965
-3.9364777,-0.43373108,9.121292,0.002105713,0.0029144287,2.746582E-4
-3.943695,-0.43133545,9.128494,0.0018157959,0.001083374,-9.613037E-4
-3.9701385,-0.40737915,9.121292,5.950928E-4,0.0016937256,-3.3569336E-4
-3.9701233,-0.42175293,9.128494,0.0015106201,4.7302246E-4,-6.5612793E-4
-3.9580994,-0.44093323,9.123703,9.0026855E-4,0.0019989014,-0.0012664795
-3.943695,-0.42893982,9.123703,5.950928E-4,-1.373291E-4,5.79834E-4
-3.9388733,-0.46009827,9.130905,0.0012054443,-0.001663208,0.0014953613
-3.9364777,-0.46966553,9.142914,2.89917E-4,-0.004714966,0.0030212402
-3.9220428,-0.45291138,9.133301,-9.3078613E-4,-0.005935669,0.0030212402
-3.929245,-0.4385376,9.121292,-6.2561035E-4,-0.005935669,0.003326416
-8.432495,-4.1186676,1.1249542,-0.10020447,-0.089019775,-0.22636414
-9.055191,-4.7152557,1.898407,0.08305359,-0.08932495,-0.34120178
-8.603195,-5.1369476,2.2322845,0.10534668,0.23809814,-0.4044342
-8.295441,-4.8925476,1.8335571,0.12825012,0.63027954,-0.27095032
-8.91095,-4.621811,1.6029663,0.10169983,0.4726715,-0.20010376
-8.641663,-4.5451355,1.898407,-0.008575439,0.09944153,-0.22453308
-8.124725,-3.95813,2.3451843,-0.14846802,-0.07374573,-0.24072266
-7.268814,-3.304062,2.7078857,-0.2501831,0.15441895,-0.4844513
-6.429718,-3.3376007,2.5877838,-0.27398682,0.59332275,-0.8912964
-6.374405,-4.2959595,1.7182617,-0.28590393,0.9610748,-1.349762
-6.5859833,-5.4196625,0.63253784,-0.31736755,0.9641266,-1.60112
-6.386444,-5.443619,0.15693665,-0.33937073,0.7744446,-1.5751648
-5.953659,-4.8542175,0.16894531,-0.3757019,0.72343445,-1.64328
-5.8334503,-4.6960754,-0.0184021,-0.33843994,0.842865,-1.8833466
-5.371826,-5.44841,0.29866028,-0.1625061,0.39967346,-1.9313049
-4.8597107,-6.0425873,0.67819214,-0.099594116,-0.22584534,-1.9053497
-4.881363,-6.859604,0.39233398,-0.13471985,-0.40055847,-2.04187
-5.501663,-6.5936584,0.50283813,-0.17442322,-0.46775818,-2.2119904
-8.4613495,-7.9785004,0.80789185,-0.060806274,-0.5486908,-2.3308105
-9.805344,-8.01683,1.7014313,0.046707153,-0.3461914,-2.20253
-9.752441,-7.8778687,1.6870422,0.16339111,-0.22280884,-1.7624054
-7.5669403,-7.3723297,1.2978973,0.23332214,-0.1317749,-1.2306366
-5.080902,-8.984787,1.732666,0.4407196,-0.24081421,-0.8543396
-4.383667,-9.768265,0.9808502,0.6053467,0.18037415,-0.7333832
-4.802017,-9.289078,1.2594757,0.50852966,0.61317444,-0.81066895
-6.0858917,-9.329803,1.1393585,0.34695435,0.86883545,-0.93711853
-9.026352,-9.799393,1.2090302,0.23791504,0.5866089,-1.1164093
-7.6607056,-10.235458,0.9472046,-0.0776062,0.2106018,-1.0974731
-3.8859863,-10.666733,0.1569519,-0.39343262,-0.07435608,-0.77186584
-1.3975372,-10.566101,-0.17453003,-0.5986786,-0.738678,-0.5843353
-1.3903351,-8.500809,-0.7294159,-0.60112,-1.4561462,-0.59503174
-2.142868,-10.702667,0.71180725,-0.67993164,-2.2200317,-0.88916016
-2.4698486,-12.264816,4.091446,-1.0907288,-2.704773,-0.84609985
-4.027832,-12.681702,1.8575745,-0.7801056,-1.4155273,-0.8198242
-3.58786,-8.891342,0.94000244,-0.2688141,-0.43385315,-0.5107269
-3.2584686,-8.258835,1.1681976,-0.014984131,-0.2771759,-0.2394867
-2.7223053,-9.190842,1.1153412,0.18385315,0.007797241,-0.07852173
-3.188736,-9.023117,1.3699646,0.35858154,0.22494507,0.17651367
-3.857132,-8.393005,1.6654053,0.41783142,0.3514099,0.3218994
-4.619293,-8.244446,1.3483429,0.46090698,0.5896454,0.32006836
-4.3355713,-8.318726,0.9952545,0.44104004,0.5847626,0.06686401
-4.0542755,-8.977615,0.9736328,0.20829773,0.23320007,-0.16648865
-4.037445,-9.142929,0.8727417,-0.116378784,-0.21670532,-0.23979187
-4.7515106,-7.69339,0.5868988,-0.28559875,-0.49098206,-0.055007935
-5.977707,-7.104004,0.779068,-0.20739746,-0.5948334,0.22599792
-5.81662,-7.8802643,1.4900513,-0.08857727,-0.56611633,0.39979553
-3.7441254,-8.572693,0.5917053,-0.11973572,-0.3287964,0.4801178
-1.6235504,-9.425644,0.4139557,-0.27581787,-0.5178528,0.37901306
-1.1474915,-8.563095,1.6341858,-0.58613586,-1.0154114,0.51005554
-2.8521423,-7.42984,0.65896606,-0.49143982,-0.8516998,0.41384888
-3.0733337,-8.546341,0.40675354,-0.2874298,-0.77046204,0.24066162
-2.282318,-8.745209,0.75024414,-0.33903503,-0.76342773,0.17559814
-3.6912384,-8.745209,0.8583374,-0.5119171,-0.7353363,0.16674805
-4.8500977,-10.039001,1.3147125,-0.66096497,-0.9610443,0.14199829
-4.3548126,-10.350464,1.3147125,-0.67837524,-1.0896301,0.20980835
-3.953308,-9.543045,1.1081543,-0.6527252,-1.0001526,0.21316528
-4.1071777,-9.693985,1.6846161,-0.6172943,-0.85292053,0.0867157
-3.8787537,-9.011139,1.0552979,-0.44410706,-0.60032654,0.04548645
-2.683838,-8.273209,0.58929443,-0.41233826,-0.44088745,0.030227661
-2.0370789,-8.047989,0.79348755,-0.5723877,-0.45585632,-0.14479065
-3.058899,-8.994385,0.8415222,-0.75442505,-0.43356323,-0.48628235
-3.7513428,-9.310638,0.2073822,-0.75901794,-0.3959961,-0.7492523
-3.2680817,-8.898544,0.4187622,-0.75016785,-0.5590973,-0.8167572
-3.6094818,-9.643677,0.71661377,-0.85035706,-0.61834717,-0.8176727
-3.7681732,-10.470261,0.46440125,-0.8106537,-0.51542664,-0.75964355
-3.306549,-10.259415,-0.030410767,-0.69854736,-0.33581543,-0.6585388
-2.866562,-11.210602,-0.93118286,-0.7901764,-0.32910156,-0.58828735
-1.820694,-10.170776,-0.407547,-1.1533356,-0.7402191,-0.6509094
-3.2584686,-10.168381,0.9303894,-1.2700195,-1.1986694,-0.9233551
-3.953308,-9.71077,0.75024414,-1.0592651,-0.97906494,-1.0293427
-1.960144,-9.480743,-0.5588684,-0.7333679,-0.5233612,-0.52230835
-1.7341461,-9.753876,0.17855835,-0.65182495,-0.3865204,-0.34547424
-3.7753754,-11.452606,-0.22259521,-0.7345886,-0.3801117,-0.3155365
-3.1310272,-10.867996,-0.9239807,-0.5717926,-0.40057373,-0.14846802
-1.6740265,-11.380737,-1.1906128,-0.1817627,-0.31781006,0.063201904
-0.78685,-10.752975,-0.5660858,-0.023544312,-0.25274658,0.119400024
-1.3975372,-10.58049,-0.16252136,-0.011932373,-0.28237915,0.096191406
-2.5708466,-10.637985,-0.33306885,0.073898315,-0.41157532,0.036331177
-2.6261444,-10.46788,-0.7702484,0.23699951,-0.5407715,-0.011627197
-1.0393066,-9.9934845,-0.49641418,0.29380798,-0.67944336,0.024108887
-0.62576294,-9.734726,-0.16012573,0.22325134,-0.6116333,0.035095215
-1.2677155,-9.344177,-0.55166626,0.27853394,-0.3446808,-0.014678955
-1.950531,-9.655655,-1.1665802,0.3735199,-0.16630554,-0.114868164
-2.6525726,-10.120468,-0.39312744,0.4223938,-0.29458618,-0.24253845
-3.467636,-9.545441,-0.08807373,0.33442688,-0.34407043,-0.3973999
-3.897995,-8.582275,1.6365814,0.17041016,-0.3196411,-0.54125977
-2.2366333,-9.4543915,1.0865173,-0.40533447,0.31933594,-0.88212585
-1.1162415,-10.017441,-0.96481323,-0.7077179,0.90057373,-0.9969635
-1.6403809,-9.133347,-2.199463,-0.53422546,0.76434326,-1.0937805
-1.7846375,-8.754791,-2.024109,-0.22451782,0.20478821,-1.2917023
-1.3566589,-9.123764,-1.5845184,-9.460449E-4,-0.27565002,-1.6139374
-0.29638672,-9.67482,-0.36671448,0.10229492,-0.7677002,-1.8912811
0.45137024,-9.825775,-0.13850403,0.22935486,-0.8309326,-1.8506622
0.36480713,-9.576584,0.077682495,0.33229065,-0.7145691,-1.5360565
0.92019653,-9.33699,0.20018005,0.3610077,-0.44700623,-1.14357
0.8312378,-8.766769,-0.02319336,0.3646698,-0.031921387,-0.86257935
1.2159271,-9.497528,0.056045532,0.3365631,0.22770691,-0.39830017
1.5429077,-9.9934845,0.32987976,0.28952026,0.30436707,0.4749298
0.5307007,-9.832947,0.22419739,0.19270325,0.36943054,0.87046814
-0.2891693,-9.641281,0.32987976,0.10229492,0.29490662,1.1077881
-1.0873871,-10.278595,0.080062866,0.0066986084,0.30345154,1.2797546
-1.9360962,-9.684402,-0.24179077,0.050979614,0.32330322,1.2501221
-2.241455,-8.594254,-0.29466248,0.18721008,0.24298096,1.083664
-2.0491028,-9.265121,0.4331665,0.22111511,0.0129852295,0.91474915
-1.9962006,-9.904831,0.38034058,0.101379395,0.008392334,0.69758606
-1.7509766,-10.532562,-0.4459839,5.950928E-4,0.17547607,0.4865265
-1.2460785,-10.197128,-0.008804321,-0.009490967,0.0022888184,0.10932922
-0.907074,-9.440018,-0.059249878,0.004257202,-0.089019775,-0.07148743
-1.1571198,-9.816177,-0.08566284,-0.038513184,-0.10888672,-0.029037476
-1.1691437,-9.945572,-0.025604248,-0.068740845,-0.14920044,-0.024765015
-1.0104523,-9.93837,0.039230347,-0.050720215,-0.12416077,-0.027816772
-0.91186523,-9.902435,0.22659302,-0.0070495605,-0.10583496,-0.024154663
-0.82051086,-9.835342,0.13052368,0.03816223,-0.05177307,-0.024459839
-0.95274353,-10.015045,0.20257568,0.03694153,-0.051452637,-0.015304565
-0.9792023,-9.852127,0.10649109,0.013412476,-0.039535522,-0.015304565
-0.89985657,-9.904831,-0.06645203,-0.0043029785,-0.009902954,-0.0067596436
-0.73635864,-10.257034,-0.04725647,-6.2561035E-4,-0.009002686,0.0027160645
-0.8517761,-8.886566,-0.27062988,0.040298462,0.029190063,0.052490234
-0.82292175,-9.947952,0.1497345,0.05496216,-0.04197693,-0.014099121
-0.89024353,-10.357666,-0.08566284,0.030822754,0.090270996,0.004852295
-0.83013916,-9.552628,-0.21298218,0.019515991,0.05178833,8.8500977E-4
-0.9431305,-9.499924,-0.112091064,0.039993286,0.049041748,-0.0110321045
-1.0753632,-9.926392,0.051254272,0.05831909,0.03590393,-0.026611328
-1.099411,-9.765869,-0.0184021,0.040908813,0.06645203,-0.0137786865
-0.979187,-9.799408,-0.09527588,-0.002166748,0.07499695,-0.005844116
-0.95274353,-9.816193,0.029632568,-0.012237549,0.067977905,8.8500977E-4
-0.96476746,-9.773056,0.048858643,0.0079193115,0.081726074,-4.5776367E-5
-1.0417023,-9.844925,0.0680542,0.007003784,0.091796875,-0.0052337646
-1.1306763,-9.885666,0.13531494,5.950928E-4,0.070114136,-0.00920105
-1.2172241,-9.849731,0.2217865,0.008529663,0.055755615,-0.0024719238
-1.2244263,-9.825775,0.23860168,0.011886597,0.06185913,0.007904053
-1.2124176,-9.835342,0.24101257,0.01676941,0.07102966,0.009735107
-1.2100067,-9.818573,0.23139954,0.023803711,0.056671143,0.007904053
-1.2364502,-9.794617,0.23381042,0.026550293,0.037124634,0.0051574707
-1.2869568,-9.720352,0.20498657,0.026550293,0.014221191,0.0054626465
-1.2749329,-9.756287,0.2073822,0.022583008,-0.0062408447,0.0030212402
-1.2292328,-9.77066,0.1929779,0.014633179,-0.019073486,-6.4086914E-4
-1.1739349,-9.686798,0.123306274,0.0036468506,-0.024261475,-0.005844116
-1.1883698,-9.720352,0.046447754,-0.00491333,-0.027923584,-0.00920105
-1.2124023,-9.794617,0.051254272,-0.009796143,-0.041366577,-0.007980347
-1.1667328,-9.8089905,0.077682495,-0.014373779,-0.05328369,-0.006454468
-1.0729675,-9.8089905,0.08488464,-0.019256592,-0.059387207,-0.0067596436
-1.000824,-9.773056,0.07527161,-0.01651001,-0.060302734,-0.008285522
-1.0152588,-9.761078,0.10169983,-0.007965088,-0.06518555,-0.009811401
-1.0272827,-9.825775,0.12812805,-0.0055236816,-0.06121826,-0.015304565
-1.0368958,-9.835342,0.116104126,-0.016204834,-0.052978516,-0.015609741
-0.99121094,-9.859299,0.051254272,-0.032699585,-0.040145874,-0.009506226
-0.92149353,-9.840134,0.034439087,-0.028427124,-0.038009644,-0.005844116
-0.8782196,-9.811386,0.053649902,-9.460449E-4,-0.027618408,-0.006454468
-0.89505005,-9.82576,0.07527161,0.01737976,-0.007156372,-0.010116577
-0.92630005,-9.797012,0.07287598,0.0079193115,0.018493652,-0.0110321045
-0.95033264,-9.806595,0.08728027,-0.008270264,0.02947998,-0.0030975342
-0.9864197,-9.832947,0.082473755,-0.013153076,0.031021118,0.004547119
-0.979187,-9.847321,0.11129761,-0.0055236816,0.04170227,0.0054626465
-1.0753632,-9.777847,0.012832642,0.0076141357,0.05819702,0.0036315918
-1.0248871,-9.902435,0.603714,-0.042175293,-0.0068511963,-3.3569336E-4
-0.93351746,-9.933594,-0.09288025,-0.09347534,0.12081909,0.0054626465
-0.99842834,-9.955154,-0.04724121,-0.054382324,0.06614685,-0.001876831
-1.1787567,-9.830551,0.10890198,-0.04032898,-0.028549194,0.01890564
-1.2677155,-9.648468,0.19778442,-0.041259766,-0.012664795,0.013397217
-1.1402893,-9.662842,-0.1577301,-0.031173706,0.06980896,0.0036315918
-1.0224762,-9.631699,-0.14811707,0.006088257,0.016967773,0.009735107
-0.96717834,-9.840149,-0.26342773,0.048538208,0.037124634,0.031417847
-1.0633545,-9.780243,0.15454102,0.06442261,-0.018463135,0.02684021
-1.1667328,-9.806595,0.15454102,0.022888184,0.04751587,0.017059326
-1.2292328,-9.761078,0.10169983,-0.04034424,-0.005630493,-0.0015716553
-1.1787567,-9.559814,-0.0039978027,-0.02293396,0.016357422,-0.017456055
-1.1739349,-9.617325,0.036849976,-0.039108276,0.0154418945,2.593994E-4
-1.077774,-9.7634735,0.1497345,0.009140015,-0.031295776,-0.004928589
-0.9864197,-9.962326,0.1040802,-0.02079773,0.06278992,0.011871338
-0.97198486,-10.007858,0.10409546,-0.030563354,0.06278992,-0.0043182373
-1.0729675,-9.823364,0.10169983,-0.051330566,-0.057250977,0.0011901855
-1.2893524,-9.71077,0.1569519,0.071746826,0.09913635,-0.0033874512
-1.3614807,-9.535858,0.10650635,-0.021102905,-0.05999756,-0.013473511
-1.282135,-9.626907,0.06565857,-0.015289307,0.09333801,-9.460449E-4
-1.1354828,-9.91922,0.051254272,-0.009185791,-0.026412964,-0.0040130615
-1.0392914,-9.9767,0.0320282,-0.024154663,0.06462097,0.011566162
-1.0825806,-10.065353,0.08728027,-0.0027770996,-0.001663208,0.0014801025
-1.1354675,-9.892838,0.051239014,-0.012237549,-0.11741638,0.0030059814
-1.1330719,-9.677216,0.027236938,0.009750366,-0.0065612793,0.010955811
-1.0825806,-9.6388855,-0.035232544,-0.04949951,-0.063964844,0.0018005371
-0.9455414,-9.768265,-0.05444336,0.010055542,-0.027923584,0.014312744
-0.9864197,-9.967133,-0.061645508,0.07572937,7.7819824E-4,0.007598877
-1.0801697,-9.864105,-0.10247803,0.015563965,-0.034347534,0.006378174
-1.0970001,-9.835342,-0.13371277,0.011276245,-0.03526306,0.006378174
-1.0921936,-9.852127,-0.13850403,0.017074585,-0.044418335,0.010650635
-1.171524,-9.842545,-0.13131714,0.017074585,-0.055419922,0.014312744
-1.1691437,-9.90004,-0.25621033,0.0048675537,-0.06947327,0.0152282715
-1.1450958,-9.945557,-0.25141907,0.01739502,-0.084747314,0.016448975
-1.0465088,-9.880875,-0.29704285,0.05130005,-0.10092163,0.017059326
-0.9575653,-9.847321,-0.1217041,0.09741211,-0.123535156,0.013702393
-0.9022522,-9.852127,-0.13131714,0.12275696,-0.11222839,0.011260986
-0.82051086,-9.849731,-0.1000824,0.13467407,-0.09512329,0.0039367676
-0.8108978,-9.854507,0.18334961,0.16583252,-0.076187134,-9.460449E-4
-0.7628174,-9.897644,0.26023865,0.1991272,-0.055725098,-0.0055389404
-0.77001953,-9.823364,0.06326294,0.18659973,-0.057250977,-0.007369995
-0.765213,-9.653259,-0.14811707,0.07939148,-0.07067871,-0.020202637
-0.86138916,-9.717941,-0.4003296,0.013412476,-0.055114746,-0.040664673
-1.0609436,-9.756287,-0.2297821,0.058624268,-0.06427002,-0.03425598
-1.1739349,-9.763458,0.13050842,0.14047241,-0.08351135,-0.015914917
-1.1907654,-9.696396,0.40675354,0.14414978,-0.081085205,-0.001876831
-1.1234436,-9.545441,0.45239258,0.08732605,-0.044418335,0.023788452
-1.0801697,-9.490341,0.38272095,0.027160645,0.013290405,0.027755737
-1.0970001,-9.571793,0.34669495,-0.00491333,0.05758667,0.020431519
-1.1547089,-9.667633,0.37553406,-0.02293396,0.071640015,0.014312744
-1.1739349,-9.739502,0.48602295,-0.034835815,0.052093506,0.008514404
-1.1787567,-9.813797,0.62294006,-0.042785645,0.016357422,0.007598877
-1.1859741,-9.86171,0.6277466,-0.04888916,0.010559082,0.012176514
-1.2196198,-9.876083,0.4788208,-0.052856445,0.027648926,0.022262573
-1.272522,-9.926392,0.4043579,-0.051940918,0.036514282,0.035079956
-1.2436676,-9.971909,0.44517517,-0.026290894,0.034988403,0.04547119
-1.1955872,-9.945572,0.55326843,0.015548706,0.03315735,0.050964355
-1.1667328,-9.93837,0.71661377,0.05557251,0.030715942,0.05218506
-1.1595306,-9.914413,0.7958679,0.08581543,0.030700684,0.047607422
-1.1763458,-9.77066,0.721405,0.10626221,0.045074463,0.042419434
-1.2460785,-9.686798,0.59651184,0.10443115,0.052703857,0.03263855
-1.3278198,-9.655655,0.4355774,0.081832886,0.04597473,0.020126343
-1.3710938,-9.658051,0.29145813,0.052841187,0.030700684,0.008224487
-1.3951263,-9.682007,0.23860168,0.032058716,0.005645752,0.0015106201
-1.4191895,-9.710754,0.26742554,0.01953125,-0.02885437,0.0015106201
-1.4360046,-9.749084,0.34669495,0.007019043,-0.063064575,0.0076141357
-1.4696808,-9.797012,0.42596436,-0.007949829,-0.08810425,0.015548706
-1.4360046,-9.804199,0.4691925,-0.016799927,-0.10217285,0.021362305
-1.3638916,-9.840149,0.43318176,-0.014968872,-0.11621094,0.01953125
-1.4071655,-9.955154,0.4716034,0.004272461,-0.14889526,0.015548706
-1.4600525,-9.974304,0.56288147,0.035125732,-0.18463135,0.020751953
-1.380722,-9.950348,0.603714,0.078186035,-0.20478821,0.03387451
-1.1931763,-9.926392,0.6517639,0.11177063,-0.21914673,0.048233032
-1.0633545,-9.950348,0.60131836,0.1313324,-0.192276,0.052505493
-1.0104523,-9.947968,0.50283813,0.15118408,-0.12965393,0.053726196
-0.97198486,-9.93837,0.45480347,0.17654419,-0.060012817,0.049453735
-0.97198486,-9.95755,0.45480347,0.22631836,-0.020309448,0.03387451
-0.99121094,-10.024612,0.35391235,0.2797699,-0.02519226,0.018920898
-0.9479523,-10.086929,0.027236938,0.28892517,-0.07040405,0.010665894
-0.8421631,-10.154007,-0.3907318,0.24464417,-0.14370728,0.0149383545
-0.8349457,-10.300156,0.17616272,0.20585632,-0.236557,0.008529663
-0.9936218,-11.337585,1.5909424,0.24647522,-0.2753601,-0.011627197
-1.1667328,-10.812881,2.393219,0.3081665,-0.26924133,0.05067444
-0.9359131,-9.979111,1.48526,0.44592285,-0.093307495,0.10290527
-0.3132019,-9.219589,0.16174316,0.64904785,0.040786743,0.14781189
0.10032654,-8.924896,0.07287598,0.81336975,0.06491089,0.18475342
-0.37091064,-9.056671,0.9640198,1.1603394,-0.06062317,0.23730469
-0.7579956,-9.200439,0.6661682,1.6542206,0.0062713623,0.36619568
-1.3542786,-8.879379,1.5357056,1.6981964,0.17915344,0.3249359
-1.981781,-8.848236,1.4708557,1.5262299,0.14984131,0.22476196
-2.0082245,-9.198029,0.5244446,1.269989,0.29826355,0.14076233
-1.8952332,-9.468765,0.9808502,1.1407776,0.08081055,0.12884521
-1.7197113,-9.351364,1.6341858,1.2391205,-0.23043823,0.19970703
-1.6668243,-9.241165,2.321167,1.4086456,-0.2823639,0.26568604
-1.7606049,-9.303452,2.6646423,1.598938,-0.3550415,0.36679077
-0.7171173,-8.836258,2.2154846,1.595871,-0.34832764,0.46543884
0.0907135,-8.630203,3.2795868,1.6013641,-0.53800964,0.34907532
0.7663269,-7.554428,4.701584,1.8506165,-0.58351135,0.22598267
0.083496094,-6.576889,5.823303,2.0628967,-0.43019104,0.17222595
-1.2677155,-6.7973175,6.1523895,1.9184113,-0.24691772,0.083343506
-1.830307,-7.192642,5.2276154,1.7733307,0.15594482,-0.022338867
-2.049118,-6.6799164,4.915344,1.901001,0.47817993,-0.097473145
-1.647583,-5.92041,5.0786743,2.026535,0.48031616,8.69751E-4
-1.6788483,-6.203125,4.6919556,2.0354004,0.4968109,0.117248535
-2.4746704,-7.1974335,4.90094,1.9828644,0.16479492,0.26538086
-3.0084076,-7.14711,4.946579,1.9914093,-0.14338684,0.3518219
-2.2678986,-5.3070526,6.2292633,1.9898834,-0.20812988,0.29196167
-0.1713562,-3.591568,7.29335,2.0421143,-0.10673523,0.04852295
-0.36369324,-4.6385803,8.244553,2.1514587,-0.11192322,-0.26423645
-3.2248077,-7.7748413,7.608017,1.9776611,-0.13635254,-0.36961365
-4.708252,-8.685303,6.635193,1.5796967,-0.029159546,-0.098083496
-2.7968292,-6.7110596,6.8321533,1.4935455,-0.18766785,0.15145874
-1.4360046,-4.9859924,7.68248,1.5384521,-0.44943237,0.21528625
-1.9673615,-4.667343,8.650497,1.5708313,-0.42285156,0.1951294
-3.0420685,-4.8230743,9.116486,1.5418091,-0.24786377,0.23822021
-3.0997772,-4.154602,8.285385,1.4312439,-0.0868988,0.24554443
-2.3929138,-3.9677124,8.753784,1.3710785,-0.18310547,0.22813416
-1.6283569,-5.0051575,9.034821,1.3973389,-0.26893616,0.22660828
-1.3037872,-4.8733826,9.43837,1.3991699,-0.24847412,0.34573364
-1.1138306,-3.2729034,9.748215,1.4529266,-0.22036743,0.40711975
-1.3710938,-2.0653687,9.435959,1.485611,-0.12200928,0.36558533
-1.758194,-2.5421448,9.844315,1.4758453,-0.083221436,0.26966858
-1.6427917,-2.4511108,9.899536,1.4831696,-0.14155579,0.25134277
-1.3061829,-1.5358582,9.791458,1.4547577,-0.18341064,0.28800964
-1.3157959,-0.7068634,9.839493,1.416275,-0.18920898,0.29045105
-1.6596069,-0.6709137,9.849106,1.4138336,-0.11254883,0.29289246
-2.1693115,-0.36424255,10.622559,1.4416351,-0.07191467,0.33473206
-2.1933594,0.1341095,10.802704,1.5500488,0.1174469,0.4211731
-2.3640594,0.30662537,10.7066345,1.6083984,0.4094391,0.5082092
-3.195938,1.2458191,12.443298,1.4651489,0.502594,0.59558105
-3.7008514,2.5204468,13.858078,1.2562256,0.37950134,0.6746826
-3.16951,3.1457977,14.081467,0.74798584,0.1751709,0.6624756
-2.7752075,1.5453186,12.6258545,0.31640625,0.07406616,0.42056274
-2.0467072,0.7426758,9.726608,0.0149383545,0.2869568,0.23545837
-2.2198029,1.5692749,6.800949,-0.19856262,0.2741394,0.25776672
-2.4289856,2.0628357,7.495117,-0.14753723,-0.30619812,0.2681427
-2.0322723,1.4063416,9.479202,0.021972656,-0.736557,0.1456604
-1.1835632,1.3943634,10.15416,0.16062927,-0.6152954,0.048843384
-0.6281738,2.125122,10.255051,0.17529297,-0.3483429,-0.023544312
-0.4646759,1.9981384,10.142151,0.11450195,-0.126297,-0.09440613
-0.58247375,1.1907196,10.007645,0.058013916,-0.12231445,-0.1164093
-0.9888153,0.82173157,9.937973,0.040298462,-0.154068,-0.095336914
-1.4504395,0.5150604,9.971619,0.03540039,-0.10765076,-0.0834198
-1.7028961,0.39526367,9.851501,0.055877686,-0.016326904,-0.06906128
-1.5778503,0.38807678,10.02684,0.10595703,0.039871216,-0.08189392
-1.4071503,0.09577942,10.3559265,0.10687256,0.11929321,-0.109375
-1.5442047,-0.3522644,10.146973,0.056793213,0.22038269,-0.10357666
-1.8110809,-0.27799988,9.625717,0.008834839,0.22314453,-0.03668213
-1.8663788,0.2227478,9.459976,-0.011627197,0.12631226,-0.0027923584
-1.8423309,0.32099915,9.512817,0.03265381,0.11959839,-0.044937134
-1.9649506,-0.4864502,9.837097,0.09649658,0.18281555,-0.10542297
-1.9120636,-0.38102722,10.017242,0.18629456,0.2081604,-0.10939026
-1.6716309,-0.40019226,10.182983,0.25378418,0.17121887,-0.07273865
-1.3422394,0.28744507,8.914719,0.151474,0.15531921,0.07142639
-1.950531,0.13650513,9.1285095,-0.0345459,-0.12414551,0.17314148
-1.380722,0.6108856,10.257446,-0.097457886,-0.3229828,0.19726562
-1.1354675,0.8337097,10.070099,0.044265747,-0.17240906,0.09953308
-1.4768829,1.0924835,10.079697,0.11878967,-0.1351471,0.058914185
-1.8760071,0.9391327,10.014847,0.04273987,-0.09725952,0.027145386
-2.0923767,0.6779785,9.760223,-0.005218506,0.03804016,-0.006149292
-2.1380768,0.66600037,9.515228,0.011291504,0.07897949,-0.012863159
-2.034668,0.7450714,9.592087,0.046707153,0.009643555,-0.014389038
-1.9914093,0.7187195,9.745819,0.05281067,-0.04197693,-0.022338867
-1.972168,0.5462036,9.889938,0.04396057,-0.044418335,-0.037612915
-1.9240875,0.36891174,10.0364685,0.045791626,-0.018463135,-0.050430298
-1.9120636,0.36891174,9.894745,0.05647278,-1.373291E-4,-0.04737854
-1.9360962,0.3497467,9.8971405,0.047927856,-0.04748535,-0.0345459
-2.0298767,0.32577515,9.892349,0.0460968,-0.03465271,-0.01927185
-2.1068115,0.3329773,9.957199,0.03692627,-1.373291E-4,-0.013168335
-2.0010223,0.3569336,9.889938,0.024719238,0.025222778,-0.008895874
-1.8255157,0.4455719,9.781845,-3.2043457E-4,0.0029144287,0.004547119
-1.8351288,0.50787354,9.647324,-0.006439209,-0.047164917,0.024093628
-1.8856201,0.4958954,9.52243,0.0054779053,-0.08932495,0.027740479
-1.8495483,0.5605774,9.620926,0.0066986084,-0.10520935,0.03538513
-1.6596069,0.6588135,9.784256,-0.0012359619,-0.112838745,0.048217773
-1.4768829,0.6588135,9.832291,0.0051727295,-0.11680603,0.051574707
-1.3879242,0.62286377,9.796265,0.0079193115,-0.09786987,0.042099
-1.2965698,0.6540222,9.899536,0.0024261475,-0.08047485,0.035995483
-1.2052002,0.6300659,9.8611145,-0.0015563965,-0.053588867,0.032333374
-1.1931763,0.5677643,9.784256,0.004257202,-0.030975342,0.029891968
-1.2677155,0.6061096,9.772247,0.003036499,-0.03036499,0.03263855
-1.3999481,0.56777954,9.769836,-0.0024719238,-0.035873413,0.031723022
-1.4600525,0.47911072,9.801071,-0.0012512207,-0.031280518,0.017059326
-1.4768829,0.5222473,9.810669,0.018615723,-0.0041046143,0.0039367676
-1.4576569,0.5749512,9.849106,0.02319336,0.0056762695,-0.008285522
-1.4889069,0.57255554,9.837097,0.013412476,-0.0025787354,-0.02142334
-1.553833,0.58454895,9.858704,0.003036499,-0.0028839111,-0.03363037
-1.6091156,0.57255554,9.808273,0.0024261475,0.01361084,-0.047073364
-1.6211395,0.54141235,9.724197,0.004547119,0.012390137,-0.058685303
-1.6067047,0.603714,9.78186,0.0054779053,-7.4768066E-4,-0.06295776
-1.5995026,0.5965271,9.774643,0.008224487,0.0032196045,-0.0574646
-1.6187286,0.56777954,9.760223,0.019226074,-0.0034942627,-0.04524231
-1.6764374,0.5558014,9.817886,0.026550293,-0.0037994385,-0.033325195
-1.6812439,0.5965271,9.935593,0.022277832,0.0020141602,-0.025390625
-1.6187286,0.59413147,9.933182,0.007003784,0.027053833,-0.020187378
-1.5610352,0.55578613,9.911545,-0.0067443848,0.058517456,-0.017440796
-1.5105438,0.5054779,9.873138,-0.005203247,0.07102966,-0.012863159
-1.5370026,0.5318451,9.829895,0.0021209717,0.062179565,-0.0110321045
-1.647583,0.5030823,9.777054,0.007003784,0.06523132,-0.011947632
-1.7125092,0.4695282,9.712189,0.0012054443,0.07987976,-0.010421753
-1.6547852,0.50787354,9.685776,-0.0024719238,0.081100464,-0.0110321045
-1.6884613,0.53422546,9.736206,0.002105713,0.05606079,-0.017440796
-1.6572113,0.58213806,9.724197,0.0051574707,0.018798828,-0.018661499
-1.6283569,0.622879,9.695374,0.009140015,-0.009597778,-0.017745972
-1.6548004,0.66360474,9.7314,0.016464233,-0.03831482,-0.014694214
-1.657196,0.6587982,9.832306,0.01676941,-0.055725098,-0.01499939
-1.6884613,0.63246155,9.887527,0.012496948,-0.057861328,-0.017440796
-1.7052917,0.6492462,9.875519,0.009750366,-0.039535522,-0.018661499
-1.6956635,0.622879,9.7890625,0.008529663,-0.012649536,-0.015914917
-1.6908722,0.55818176,9.777054,0.0048675537,0.0056610107,-0.010726929
-1.7028961,0.48631287,9.7890625,8.8500977E-4,0.010253906,-9.460449E-4
-1.7028961,0.50787354,9.762634,0.0024261475,-0.0065460205,0.007293701
-1.7077026,0.5222473,9.767426,0.00730896,-0.035873413,0.009429932
-1.6499939,0.5701752,9.822678,0.0076141357,-0.04411316,0.009429932
-1.5514221,0.57736206,9.803467,0.0036468506,-0.0309906,0.011566162
-1.5129395,0.57255554,9.79866,-0.0012359619,-0.02822876,0.012481689
-1.5393829,0.5605774,9.805862,-0.003982544,-0.032196045,0.011566162
-1.5826721,0.54141235,9.815475,9.0026855E-4,-0.030670166,0.009429932
-1.6115265,0.57255554,9.81308,0.008834839,-0.021835327,0.0079193115
-1.5778503,0.60849,9.810669,0.0066986084,-0.018478394,0.0076141357
-1.5321808,0.5821533,9.820282,-0.0036773682,-0.011444092,0.0066986084
-1.5273895,0.57255554,9.832306,-0.009185791,-0.0062561035,0.0054779053
-1.5297699,0.60131836,9.793869,-0.0024719238,-0.009613037,0.005783081
-1.5442047,0.57736206,9.810669,0.0039520264,-0.01878357,0.006088257
-1.5442047,0.56777954,9.7890625,0.0076141357,-0.013580322,0.006088257
-1.5634308,0.5797577,9.774643,0.006088257,-0.009918213,0.0048675537
-1.585083,0.5821533,9.81308,-1.5258789E-5,-0.011749268,0.0036468506
-1.5826721,0.57736206,9.880341,-0.0024719238,-0.020309448,0.0027313232
-1.5586243,0.5893402,9.815475,-0.0012512207,-0.019699097,0.0021209717
-1.5730591,0.59413147,9.786652,0.0027160645,-0.019088745,-6.2561035E-4
-1.5658569,0.5821533,9.808273,0.0027313232,-0.012054443,-0.00491333
-1.5081482,0.5893402,9.796265,0.0024261475,-0.008087158,-0.0055236816
-1.5153503,0.55340576,9.796265,0.0039520264,-0.012054443,-0.00491333
-1.5466156,0.54382324,9.841904,0.0027313232,-0.017547607,-0.0039978027
-1.5393982,0.5653839,9.846695,0.004562378,-0.016952515,-0.0027618408
-1.5081482,0.5869293,9.801071,0.0066986084,-0.012359619,-0.0043029785
-1.5081482,0.60131836,9.81308,0.003326416,-0.010528564,-0.005218506
-1.4889069,0.57255554,9.81308,-6.2561035E-4,-0.0050354004,-0.007965088
-1.4865112,0.5390167,9.858719,-0.0024719238,-0.0019836426,-0.008270264
-1.486496,0.5390167,9.94278,-0.0039978027,0.005355835,-0.0073547363
-1.4985199,0.5653839,9.947601,-0.005218506,0.021850586,-0.007965088
-1.4913025,0.60131836,9.885147,-0.0076446533,0.03527832,-0.013153076
-1.5177612,0.6276703,9.841904,-0.018035889,0.0526886,-0.016815186
-1.5514221,0.543808,9.755417,-0.0287323,0.0868988,-0.02293396
-1.594696,0.4407959,9.623322,-0.027816772,0.099121094,-0.030273438
-1.6451874,0.43840027,9.688156,-0.011932373,0.0655365,-0.0345459
-1.7245178,0.5126648,9.762634,0.0048675537,0.018493652,-0.031188965
-1.7100983,0.6132965,9.805862,0.011581421,-0.015716553,-0.027832031
-1.7197266,0.668396,9.868332,0.008529663,-0.01876831,-0.025390625
-1.7125092,0.6300659,9.889938,-0.007965088,0.003829956,-0.022644043
-1.6331635,0.6444397,9.827484,-0.020187378,0.019729614,-0.014389038
-1.6139374,0.61569214,9.777054,-0.019882202,0.022766113,-0.004928589
-1.5610352,0.57255554,9.832306,-0.013153076,0.024307251,0.0018005371
-1.5370026,0.5701599,9.805878,-0.0140686035,0.033462524,0.0082092285
-1.5345917,0.56777954,9.762634,-0.017120361,0.03163147,0.013397217
-1.5442047,0.5198517,9.745819,-0.017120361,0.020019531,0.009735107
-1.5802612,0.45515442,9.7890625,-0.018951416,0.012390137,0.003326416
-1.6355591,0.45996094,9.810669,-0.011016846,0.008117676,-0.004623413
-1.6427917,0.48631287,9.743408,-0.0018615723,0.002609253,-0.013473511
-1.6596069,0.50068665,9.729019,2.746582E-4,-0.011734009,-0.022338867
-1.6499939,0.5318451,9.796265,-3.3569336E-4,-0.022125244,-0.026611328
-1.625946,0.5270386,9.858704,-1.5258789E-5,-0.02029419,-0.026916504
-1.6091156,0.52464294,9.796265,0.0018157959,-0.013870239,-0.024169922
-1.6572113,0.5366211,9.803467,0.0033416748,-0.022735596,-0.018676758
-1.6499939,0.55818176,9.810669,0.004257202,-0.019683838,-0.012252808
-1.6403809,0.55340576,9.78186,0.0054779053,-0.010818481,-0.00920105
-1.6307678,0.562973,9.791443,0.0024261475,-0.0037994385,-0.0055389404
-1.6043091,0.53422546,9.822678,0.0021209717,-4.4250488E-4,-3.3569336E-4
-1.5898743,0.4934845,9.79866,5.950928E-4,0.0053710938,0.004547119
-1.5922852,0.47673035,9.822678,-1.5258789E-5,0.0059814453,0.009735107
