Acceleration x,Acceleration y,Acceleration z,Rotation x, Rotation y, Rotation z
2.230648,-9.642663,0.7562669,-0.04498114,-0.095630795,-0.012659663
2.259214,-9.637893,0.9145877,0.032798234,-0.027453763,-0.015059999
2.3402257,-9.623558,1.0729085,-0.013274234,-0.04929182,-0.009200884
2.3544884,-9.532706,1.0872927,0.0072322693,-0.022660378,0.0041150777
2.2447877,-9.441854,1.0441021,0.020281926,-0.0024205216,-1.4580967E-4
2.1493907,-9.460996,0.9433369,-0.02525791,-0.059678588,-0.02038565
2.1302786,-9.499268,0.91454,-0.041769315,-0.09909349,-0.007868637
2.1350055,-9.537539,1.0680629,0.051441424,-0.058613624,0.00890943
2.1254287,-9.499293,1.1496176,0.12095005,-0.059146408,-0.0033409332
2.1682978,-9.408441,1.1256185,0.074344955,-0.03890655,0.01823082
2.2063994,-9.365411,1.1495984,0.0218809,-0.010410901,0.032079414
2.2111263,-9.336729,1.1208014,0.037860036,0.04764581,0.093598545
2.2349238,-9.360654,1.0824088,0.057833906,0.10783306,0.19772823
2.2396507,-9.633263,1.005633,0.058366716,-0.024259783,0.29919475
2.2491455,-9.834134,0.9960277,0.062095318,0.0750759,0.25285596
2.3492284,-9.70024,1.1543485,0.23626608,0.2567032,0.25338876
2.3873296,-9.408528,0.95282763,0.2919263,0.46709257,0.2882763
2.0249357,-9.566359,0.8952434,0.09804851,0.33473343,0.35885015
2.3586407,-9.327253,1.1255326,-0.10195454,0.21302693,0.42755982
2.2775474,-9.030759,0.96719265,-0.16986491,0.2236794,0.5141127
2.2298284,-8.868169,0.9287999,-0.07292575,0.3230151,0.6957402
2.363286,-8.849052,0.8952052,0.033334464,0.39385498,0.8584594
2.434762,-8.930365,0.9527704,-0.039902225,0.41835588,1.0145208
2.434721,-8.992549,1.1686658,-0.07026205,0.41009995,1.1263736
2.334556,-9.011691,1.3077952,-0.13284612,0.38613135,1.1695168
2.3011403,-8.686502,1.8835323,-0.09396381,0.2172869,1.4353002
2.5156503,-10.255134,0.82798713,-0.023389919,0.5003806,1.3932226
1.8004392,-10.111675,0.61687034,-0.059076067,0.25430453,1.1367605
1.9625033,-9.375203,1.2693738,-0.027384298,0.4524434,0.88376063
2.1007285,-8.844371,0.82795846,0.02508011,0.18452947,0.57270384
1.9719571,-8.327887,0.8711299,-0.008741827,0.16615352,0.20492174
2.000523,-7.8448787,1.230962,-0.12458905,0.11741757,-0.0419529
1.9480361,-7.82098,1.4324639,-0.08091307,0.18852375,-0.5684592
2.1482425,-8.194018,1.1685703,0.1486514,0.2372594,-1.023593
2.2101831,-8.810957,1.2309333,0.29725584,0.27614138,-1.3122791
2.0337338,-9.413548,1.139764,0.103910685,0.19944225,-1.4811232
1.6570361,-10.063965,1.0773818,-0.12938185,-0.027991664,-1.6789958
1.5282644,-10.475262,1.2596922,-0.10248376,-0.46155405,-1.933061
1.6664897,-11.001336,1.245289,0.018956464,-0.5694121,-2.2177525
1.5472537,-10.374858,1.3268435,0.09219352,-0.60137016,-2.4140275
1.613962,-9.064498,1.4803662,0.1326737,-0.54331344,-2.4648936
1.923828,-8.739309,1.08693,0.23440655,-0.6301326,-2.2931197
1.4422392,-8.681934,1.2164634,0.26450044,-0.7193486,-1.8350558
1.6472135,-9.069319,1.0725172,0.13054372,-0.44664127,-0.7279806
1.13225,-9.461486,1.230838,0.078345984,-0.19017926,0.31970623
1.2657075,-10.786217,1.1876475,0.073818795,-0.12972568,0.89228547
1.6709297,-11.159254,1.0532969,0.007506322,-0.07965845,1.2547415
0.8555944,-10.877108,0.99571276,-0.044957727,0.046841446,1.4997524
-2.4056234,-8.811133,1.9792706,-0.30994183,0.26548666,1.7157347
-0.751237,-9.026353,1.6865897,-0.49716172,0.36056125,1.9016234
1.1129327,-8.45248,0.7365981,-0.47210655,0.5608301,2.1010902
0.9507865,-8.42858,0.75098217,-0.3354855,0.6124945,2.0241258
1.1748322,-10.097643,1.8448914,-0.24893257,0.5962491,2.0739274
0.1258747,-11.030219,1.4850402,-0.28994495,0.4303341,2.2315865
-0.6942284,-11.388909,0.37671825,-0.25186157,0.31075805,2.2307878
-0.8754458,-11.819336,0.7557419,-0.1626455,0.12806514,1.8054816
-1.3474993,-11.431975,1.8304596,-0.20632106,0.12273863,1.0328994
-1.3284692,-11.011139,1.748886,-0.11790395,0.14990264,-0.0038681496
-1.4620084,-10.088154,1.0483845,-0.104854226,0.1879856,-0.7695261
-1.6956718,-9.036043,1.26428,0.056799755,0.29025072,-1.3575513
-1.5336074,-8.54347,1.6385059,0.204339,0.23565575,-1.705626
-2.711296,-6.338808,1.4273891,0.1753108,-0.28579095,-1.9770017
1.6464348,-11.183369,0.84683496,0.116721556,-0.65650284,-2.197511
0.59747714,-11.365111,1.5137322,0.15427235,-0.89592105,-2.314157
0.5020802,-10.781673,1.0915083,0.08716098,-0.7640949,-2.1703463
0.5973952,-11.092541,1.1250839,-0.004185125,-0.71509296,-1.8020312
0.23023349,-11.57079,1.2114365,-0.010310148,-0.590191,-0.9439612
0.16344321,-11.188214,1.3121825,0.060796436,-0.34544694,0.25872156
-0.079755634,-10.896501,1.4513118,0.09781459,-0.22800183,1.0331683
0.16336125,-10.556964,1.4944834,-0.018831529,0.015943317,1.4819108
0.5733513,-9.280082,1.8063364,-0.15704924,0.24976847,2.046767
0.86414623,-8.548391,1.8830932,-0.32536063,0.48465887,2.398038
1.379028,-8.17538,1.873488,-0.2950004,0.80716723,2.4920478
1.7031974,-8.294951,1.5999986,-0.11257374,0.6268711,2.5373216
2.0416708,-8.261487,0.9618699,-0.14000404,0.37120768,2.4441113
1.8652209,-8.577136,1.1105949,-0.19353329,0.23192428,2.1812577
1.7841271,-8.567583,1.2449263,-0.15118882,0.28465462,1.4539492
1.4408044,-9.045835,1.0242138,-0.144797,0.36188602,0.2856217
1.66485,-10.0597105,1.0194063,-0.14426412,0.4644174,-0.78603315
2.0605369,-10.820121,1.5663563,-0.020426996,0.53685516,-1.5484953
2.8376474,-10.858392,1.6191235,0.019786945,0.26654434,-2.1594238
3.2190309,-10.112354,1.3120489,0.13616723,-0.39764768,-2.6055026
3.309578,-10.093238,1.6862748,0.3377686,-0.65730584,-2.845453
2.8279886,-10.609747,0.57315487,0.4251204,-0.8333409,-2.8137612
2.3463998,-9.662848,0.6786989,0.3516175,-0.6674263,-2.3623557
3.3189907,-8.209019,0.908988,0.27065772,-0.6298759,-1.7495625
3.3284855,-7.898177,0.96655315,0.07891053,-0.63866454,-0.80280924
2.6895585,-7.152138,1.2160339,0.076780245,-0.5872658,0.19800602
3.190137,-7.027809,1.1968328,0.17531736,-0.6557092,0.91972226
3.261613,-7.051734,0.9521309,-0.0260172,-0.45224404,1.3823133
2.3175473,-7.319559,1.2735798,-0.35331917,-0.22773997,1.8225336
2.241221,-7.2765307,0.5155039,-0.35757998,0.15815154,1.9780623
1.8549882,-7.8408637,1.0240707,-0.125086,0.6641515,1.9200057
2.2173004,-7.8265295,0.16523889,-0.07102361,0.8487082,1.861949
1.7881571,-7.855236,0.064473644,-0.08966549,0.75336695,1.7908429
3.413937,-9.4190855,-0.10346202,-0.11310105,0.5525645,1.6800556
3.2613258,-10.523828,0.24197647,-0.04305972,0.34616956,1.3423674
0.5913157,-9.926043,1.3646729,0.06852688,0.16028085,0.39055464
1.1014295,-10.547764,0.6593737,0.012334468,0.35655543,-0.34927064
3.3646646,-12.50899,-0.06545003,-0.011900304,0.37866184,-0.84648544
1.567148,-11.586007,1.930459,-0.10218919,0.46388948,-1.348498
0.6039965,-10.538685,1.0524324,-0.010310181,0.29105043,-1.6744685
-0.9217555,-10.208717,0.9996427,0.11752148,-0.20749292,-1.9327949
-1.517786,-9.89788,1.5945681,0.27810997,-0.52121305,-2.1202812
-1.1078104,-9.902679,1.4554166,0.3651953,-0.6381258,-2.0233421
-0.39746317,-10.978731,0.99000835,0.32365006,-0.6093637,-1.7013663
-0.006558627,-10.4192095,1.8344241,0.22617848,-0.47647208,-1.0044178
0.7800735,-9.969683,1.0571531,0.22511323,-0.43918788,-0.09521528
0.16497174,-10.45272,1.7144511,0.25147852,-0.4253395,0.83396083
-0.27848917,-10.122753,0.7788498,0.21765646,-0.60350484,1.3330369
-0.43111417,-10.672743,0.4573783,-0.05984466,-0.35689637,1.490696
0.2649297,-11.77749,0.7644304,-0.23188469,0.252967,1.4150622
0.9419024,-11.404481,0.7548217,-0.20951411,0.7144924,1.1926885
-0.6792058,-9.582413,0.9515223,-0.039338242,0.51235855,0.78016514
-1.1751125,-10.170662,0.841158,0.13083763,0.35043854,0.072297595
-0.6268705,-10.69674,1.0042734,0.14921346,0.28252795,-0.5412942
-0.41237465,-10.38112,1.1338035,0.08316716,0.07160575,-0.8803143
-0.26462808,-11.294571,1.15778,-0.008179167,-0.12733224,-0.99110156
-0.07873914,-10.888086,1.383268,-0.117368646,-0.30176914,-0.70774156
0.8986052,-7.7317343,1.3352761,0.18756308,0.021005662,-0.045946516
0.97483456,-7.7604456,1.7238925,0.089558855,-0.07300387,-0.048609644
1.804377,-9.859926,0.8650573,-0.047061164,-0.048769146,-0.022510666
2.6720614,-9.77386,0.47641543,-0.026288496,-0.090314455,-0.028635902
2.0521922,-9.864742,0.716297,-0.026288467,-0.13931659,-0.035560083
1.494304,-10.218656,0.7738588,-0.04786002,-0.076466076,-0.024374792
1.6182117,-10.290407,0.8026332,-0.035076827,0.028462354,0.0019905092
1.141376,-11.0938635,0.2028842,-0.022293637,0.07346971,0.027290544
0.3260265,-8.167066,0.8553843,-0.011907287,0.058023363,0.04060637
1.2127825,-6.7132406,0.86496717,-0.00844515,0.023934906,0.04460114
1.7610244,-7.971023,0.43314433,-0.04066934,0.004227507,0.034214847
2.099483,-8.487537,0.41873777,-0.081948265,0.017809592,0.039807506
2.4570131,-8.9227495,0.9129075,-0.07928508,0.035919048,0.0392749
2.5713854,-10.008366,0.3227542,-0.07262716,0.0439085,0.03288335
1.9515156,-9.898388,0.58182734,-0.07795344,0.024467412,0.032617062
2.5998812,-8.568904,1.0088266,-0.058778666,0.013814752,0.028888665
2.8429842,-8.501968,0.6057911,-0.0076459893,0.016477885,0.008648688
2.4853435,-7.8420177,-0.2434482,0.026176156,0.010618911,-0.011591291
1.450675,-7.7463865,0.52420115,0.03762777,0.015945204,-0.018249162
-1.4386685,-7.4833736,-0.18110138,0.039225698,0.026331495,-0.022510188
-0.35166484,-8.994621,-0.33464673,0.04907941,0.008488307,-0.028369108
-0.094258785,-10.0324135,-0.08037144,0.05387313,-0.034921207,-0.029434344
-0.03233263,-10.362413,0.5433413,0.050411057,-0.056492817,-0.016651154
0.42055333,-9.673769,0.09232682,0.10820162,0.013015602,-0.034760606
-0.70470333,-8.81774,0.5673049,0.124180615,-0.00402864,-0.054734267
-1.4056256,-10.568108,1.5844446,0.18569961,-0.28525823,-0.11412268
-0.35199654,-11.735024,1.2965585,0.07544488,-0.42933515,-0.15460268
-0.31867725,-11.620264,0.91271436,-0.104584634,0.13259134,0.021432158
-1.0386705,-11.854617,0.8743184,-0.15411936,0.43858826,0.051525887
-1.3724722,-11.74464,1.157381,-0.06410456,0.1347218,0.044601697
-0.9577286,-10.788181,1.3300922,-0.0012455196,-0.09143542,0.04247461
-0.905338,-10.840805,0.74953467,0.024855142,-0.052821044,0.021703556
-0.6050217,-10.69735,0.9942142,0.021126878,-0.024591692,0.0075889584
0.2054494,-10.840838,0.2505285,-0.0012435012,-0.02805393,-0.008922482
1.726323,-13.002489,0.10657892,-0.010298085,-0.0032866825,-0.013982339
0.15766081,-11.826042,0.25050277,-0.0028410843,0.026007935,-0.019042196
-0.9437569,-10.601771,0.2696814,0.012605393,0.0393236,-0.019840999
-0.8865986,-10.310063,0.855011,0.018730814,0.014556089,-0.01744401
-1.0106168,-8.913626,1.253223,0.014469914,4.4121814E-4,-0.008122811
-0.7865852,-9.530569,1.3395722,0.0032848048,0.014023198,-1.3318995E-4
0.21936584,-11.247459,1.4259213,-0.010030833,0.038790442,-3.9936113E-4
0.94401646,-11.247477,2.0352402,-0.009764362,0.040654525,-0.00466027
1.3873668,-10.305365,2.0208337,-0.005236835,0.016685966,-0.009986443
1.5780236,-8.6363325,1.0084662,-0.0049703633,-3.5838236E-4,-0.01185051
0.81988776,-8.512008,0.677399,-7.0915313E-4,0.0116257025,-0.013714576
0.32874882,-10.200203,0.639003,0.00914469,0.035327684,-0.016910221
0.6576719,-11.496244,-0.41654548,0.014204849,0.04464861,-0.021703765
0.9436847,-12.132317,-0.07111034,0.017400794,0.03559374,-0.025964672
1.3965707,-10.898481,0.11119659,0.020330425,0.02733782,-0.028894003
1.1438221,-8.956854,1.2386876,0.024591634,0.019614527,-0.032355964
0.9435189,-8.693839,0.091979295,0.029918108,0.016684921,-0.03635056
0.8195008,-6.7139525,0.5765532,0.031782478,0.015353212,-0.036084097
0.75746405,-5.0497026,0.7300728,0.030451056,0.016950976,-0.03368711
1.8873781,-6.47965,0.005578669,0.024325944,0.018548742,-0.028893279
1.6823071,-7.182677,0.40379062,0.0243261,0.01988019,-0.020637343
1.6202705,-5.819716,0.28862843,0.022462044,0.010026371,-0.017441409
2.4593487,-7.38357,-0.44546154,0.019799042,-0.0022242893,-0.014245473
3.5272808,-8.43571,-0.76213515,0.021397091,-3.6020868E-4,-0.0155769065
2.2017765,-9.679145,-0.99244666,0.028055144,-9.4023184E-5,-0.015843078
1.7297088,-10.229135,-0.21040359,0.03391425,0.005764796,-0.024365041
1.2528732,-11.314752,0.5284585,0.039773356,0.006563613,-0.03501753
1.5722607,-12.462539,0.25976384,0.05015983,0.0044329558,-0.04140897
2.215859,-12.271261,0.058239646,0.060812626,-0.0027577034,-0.046202514
1.3051534,-11.257413,0.7923038,0.07705805,-9.467511E-5,-0.050729733
-2.3994846,-8.655818,-1.5154939,0.09623294,0.0113567775,-0.05658854
-1.7749577,-9.6888275,0.26451024,0.11354364,0.020677703,-0.063512616
-0.5258488,-10.903569,0.6003496,0.119402744,0.03053126,-0.07017036
-0.4019412,-11.463123,-0.2440918,0.117805004,0.03239534,-0.0699039
-0.69283247,-11.037509,1.3823799,0.115142,0.035857316,-0.07123534
-1.312702,-10.291475,0.35561866,0.12393058,0.04704245,-0.075229935
-1.9564106,-10.478005,2.1404207,0.15748653,0.07713602,-0.057919253
-1.1030293,-10.564105,1.08967,0.22007091,0.12134432,-0.031553835
-0.13522068,-10.305874,0.86895424,0.2405774,0.072075754,-0.023297898
0.8898016,-10.334584,1.401507,0.2794597,-0.004889665,-0.05339145
0.42250168,-10.616762,0.49949095,0.29836828,-0.062946655,-0.12130186
-0.8362535,-11.362829,-0.3449504,0.24723575,-0.086648904,-0.1561891
-1.2272685,-11.080687,0.14921933,0.19903274,-0.04803323,-0.15192789
-1.441875,-11.123745,0.76333624,0.24377398,0.10323406,-0.147933
-0.8078125,-10.827255,0.60019517,0.34444153,0.20576553,-0.15032971
-0.71244794,-9.7401905,0.36621064,0.4448421,0.19964074,-0.17083654
-0.5741886,-10.624931,0.4621668,0.5204816,0.123742945,-0.23928402
0.38890064,-10.505375,0.9851352,0.5633585,0.13679235,-0.2600566
0.10282552,-10.357123,1.83436,0.58706075,0.19191965,-0.24194701
0.5462243,-10.596244,1.5464851,0.61742085,0.23319854,-0.20253217
0.7655363,-9.874107,0.74523586,0.81556,0.42654377,-0.1226373
0.85134983,-10.653637,1.2202252,0.968958,0.49551952,-0.17190565
0.58434594,-10.347567,1.2634047,1.0086392,0.4276089,-0.27869824
1.2279924,-10.156274,0.25104845,1.0800121,0.4169562,-0.33542344
1.21845,-9.601521,0.4957392,1.2227573,0.45850134,-0.43076444
1.480672,-9.104156,-0.31990364,1.2267523,0.4635613,-0.48775592
1.4043802,-8.812432,0.64447045,1.2275512,0.46968645,-0.5221105
1.5331041,-7.841613,-0.3918752,1.274423,0.41083056,-0.50826204
1.3805276,-6.8707914,0.13109316,1.3284853,0.2768736,-0.44035146
1.5473937,-6.2203913,0.96592426,1.2730916,0.021210248,-0.47870082
1.4854052,-7.1146975,-0.54061466,1.2374054,0.07580492,-0.48455968
1.5378442,-7.8368387,0.4333554,1.3258224,0.3144239,-0.5047996
2.434184,-7.889447,1.2633888,1.332214,0.2965806,-0.5492742
2.6153536,-8.276821,0.60127825,1.42143,0.21961525,-0.57404155
2.467545,-8.683326,0.14067927,1.4688342,0.06488564,-0.6028036
1.9716865,-9.467638,-0.3343134,1.4656386,0.17700453,-0.6067982
1.556881,-10.792357,-0.96763647,1.4669702,0.443853,-0.5181149
0.9227562,-11.9210005,-0.8093077,1.6171726,0.31176025,-0.4640527
0.3172384,-12.490105,-0.257552,1.7535264,-0.13192213,-0.5530021
0.0359312,-12.504455,0.1022881,1.8035939,-0.29730436,-0.5418167
-0.22630483,-12.738793,0.299,1.7229002,-0.031521212,-0.3852229
-0.7984481,-12.638365,2.4724424,1.6352824,0.23106617,-0.35646072
-0.3264426,-11.930575,1.2345852,1.6941383,0.15117131,-0.5234406
0.24091905,-12.007095,1.5992231,1.5987973,0.19031966,-0.5809648
0.68908536,-11.643638,1.7383603,1.4499269,0.29471543,-0.48722157
0.8464161,-11.739287,0.7643872,1.4089142,0.18046582,-0.483493
0.4220748,-12.26535,0.9754927,1.4360785,0.08139622,-0.5306308
0.7891886,-12.126664,1.4696736,1.4243608,-0.0046238913,-0.5127876
0.7939495,-11.562346,1.5128531,1.4656398,-0.1289935,-0.45473066
0.69858646,-10.591525,1.0666478,1.4422042,-0.23951466,-0.43076214
1.0227903,-10.57718,0.9035179,1.4283559,-0.11035155,-0.4701768
0.74625087,-9.979385,0.86993104,1.3873433,-0.019271601,-0.5050641
0.48401487,-7.54994,0.66362023,1.4837496,0.07260729,-0.43555555
0.81298614,-3.704912,0.2845854,1.5042561,0.023605091,-0.4150491
1.904806,-3.5662248,0.09746605,1.391871,0.08831976,-0.4683122
0.703313,-5.096587,-0.17121732,1.2720289,-0.05815405,-0.50532997
-0.5887685,-7.2295294,-0.7277742,1.1596438,-0.3028984,-0.6406184
0.29803586,-9.6111555,-0.051273324,0.9492542,-0.3060943,-0.7109256
0.94168234,-10.414597,0.5052802,0.7327395,-0.35296595,-0.684294
0.927372,-10.591546,0.5628533,0.5186216,-0.31142077,-0.6414171
0.96073973,-10.500683,0.49568126,0.3636259,-0.31807876,-0.5623211
0.9130547,-10.118096,0.39492393,0.2070323,-0.21155252,-0.46618104
0.6984967,-9.764202,0.23179412,0.14231764,-0.14257677,-0.34340933
0.693722,-9.644645,0.107047364,0.16841671,-0.13751684,-0.26937342
0.8558204,-9.649429,0.102247894,0.20490207,-0.13085905,-0.21983854
0.9511695,-9.687691,0.18860829,0.20305777,-0.16202012,-0.20519258
1.0179118,-9.70204,0.3325433,0.23315293,-0.19344662,-0.16551013
1.0226729,-9.721171,0.51486146,0.31597736,-0.18705522,-0.11890467
1.0608082,-9.77378,0.64440286,0.33888075,-0.12527011,-0.097332895
1.1084794,-9.792911,0.70197606,0.3047925,-0.21182293,-0.08321796
1.0894012,-9.864649,0.6396018,0.31944007,-0.36309052,-0.037145127
1.0417165,-9.850304,0.5292488,0.40945506,-0.35723177,0.039820347
1.0464772,-9.802483,0.43808728,0.48002896,-0.20037186,0.1380911
1.0130957,-9.716401,0.3757131,0.39374283,-0.0072930134,0.15300497
0.9225005,-9.620756,0.3613178,0.20439243,0.006555241,0.014787222
0.97970724,-9.673365,0.49565718,0.05578838,-0.10103655,-0.051525243
1.0273783,-9.74032,0.59641117,-0.07097778,-0.15350094,0.021445498
1.0750495,-9.759451,0.71155894,-0.14208391,-0.08266109,0.106933095
1.137024,-9.6925,0.6971636,-0.107462645,0.08165564,0.1727133
1.1894629,-9.649462,0.70195997,-0.08642349,0.24623868,0.1929535
1.2466695,-9.611204,0.69236255,-0.16205698,0.22040586,0.14528315
1.2561983,-9.644683,0.6491799,-0.36392424,0.06807301,0.101873845
1.218049,-9.845545,0.63958246,-0.531703,-0.03365982,0.061926644
1.194203,-10.027278,0.677964,-0.50160915,-0.062155787,0.089357376
1.1894283,-10.118145,0.72114336,-0.22916777,0.08857883,0.09361862
1.1846536,-10.055976,0.81230164,0.12503254,0.15861973,0.058198787
1.179879,-9.96033,0.8075022,0.28482226,0.18818063,0.013724224
1.1321939,-9.845555,0.7307343,0.14660454,0.14104253,-0.0137061225
1.0606701,-9.759475,0.70674324,-0.024636373,0.11201394,-0.0070480364
1.0368241,-9.759477,0.6347733,-0.08615513,0.101627454,0.012659528
1.0034426,-9.797738,0.577197,-0.08429071,0.06034832,0.049411308
0.94622195,-9.845564,0.5915891,-0.07736631,0.023862878,0.080037825
0.87469804,-9.869478,0.59638536,-0.086953476,0.024129026,0.101076975
0.8413166,-9.840786,0.61077744,-0.10612802,0.039575174,0.10533821
0.74595356,-9.840788,0.6443611,-0.10586149,0.053689748,0.09548472
0.6553584,-9.82166,0.6059764,-0.063517064,0.059015896,0.080038585
0.60767347,-9.754709,0.56759155,-0.0011989444,0.06567361,0.058733497
0.54091734,-9.702105,0.4860259,0.040346537,0.053689234,0.023047358
0.5790528,-9.749931,0.46683276,0.03475411,0.015605893,-0.015834572
1.303752,-10.118176,0.9130348,0.0067911427,-0.030200608,-0.04725966
1.3704944,-10.04166,1.1193426,-0.013981292,-0.06215868,-0.07096158
1.1797752,-9.702113,1.1193409,-0.026231619,-0.07387675,-0.08241297
1.1320903,-9.745157,1.1385309,-0.03501984,-0.07148009,-0.079216994
2.2143745,-10.625116,1.6423076,-0.037949108,-0.063224465,-0.06776522
2.1905289,-10.52947,0.903431,-0.028361533,-0.0610941,-0.05551451
1.3752276,-9.673428,-0.1281168,-0.009985535,-0.049909007,-0.046725895
0.32630402,-8.62609,-1.62506,0.007591516,-0.0302018,-0.034741487
-1.0992758,-8.224372,-2.5750437,0.020641197,-0.005168279,-0.019561294
-1.166032,-9.156937,-1.5243075,0.022771928,0.016669456,-0.0054463646
0.30244422,-10.424269,0.32287833,0.018244762,0.028387181,0.0070706704
1.1844809,-10.615567,1.7286584,0.014516544,0.031050168,0.012130861
1.6469507,-9.6495285,2.0884984,0.010522009,0.021196313,0.016392104
1.7661389,-9.683007,1.7094636,0.0022664203,0.00388561,0.015593345
1.6469369,-9.831264,1.2152792,-0.0035923254,-0.0033050892,0.010267218
1.424756,-9.707799,0.825984,0.0033314496,0.008945808,0.010799443
1.1195812,-9.6599865,0.63885796,0.0076026036,0.016405018,0.015055076
0.986047,-9.722168,0.66763705,0.0025427528,0.01773647,0.01612048
1.0527608,-9.793915,0.5668731,-0.003049729,0.008148972,0.00972904
1.2195983,-9.860879,0.5332796,-0.007576947,-0.0059658973,-0.0014560864
1.2052593,-9.918278,0.7155911,-0.01050627,-0.021678662,-0.011309634
1.1909204,-9.9135065,0.3029644,-0.01103875,-0.024608262,-0.017701073
1.1193678,-9.880041,0.7251703,-0.011304915,-0.021412598,-0.021695672
1.1336358,-9.798752,0.29814994,-0.01077213,-0.016352724,-0.022494478
0.9762627,-9.789198,0.8978779,-0.009706716,-0.012890744,-0.018499598
0.9714594,-9.741385,0.28373972,-0.006244458,-0.0078308685,-0.01130893
0.9571204,-9.712702,1.0561916,-0.0030485154,-0.003569942,-0.0051835245
1.0095307,-9.712712,0.43725565,0.0017453219,-0.0035700686,-0.0014549614
0.95704937,-9.736635,1.2145054,0.001212842,-0.007032302,1.4307455E-4
0.9856206,-9.736646,0.39885595,0.0012129938,-0.005434534,0.0030726898
0.94744253,-9.789264,1.1041373,0.0052078837,-3.7465885E-4,0.0046707257
0.9474071,-9.774926,0.32207313,0.007072246,0.0030873208,0.0052034985
0.9616748,-9.784502,0.8354391,0.008936608,0.0044187736,0.004937323
0.99501395,-9.770165,0.22609884,0.009469392,9.565399E-4,4.1009358E-4
1.0426564,-9.770177,0.7202731,0.0049421745,9.56413E-4,-0.0051823994
1.042621,-9.736711,0.43239155,9.475878E-4,0.0020215497,-0.009176997
1.0807278,-9.741505,0.7490439,0.0022793189,-3.7541974E-4,-0.009709489
1.0377821,-9.746297,0.70105684,-1.1737249E-4,-0.001174494,-0.009709347
1.0997279,-9.722396,0.7874105,1.4909485E-4,-1.0935764E-4,-0.008111312
1.0949246,-9.755884,0.75861484,9.4819453E-4,0.0038852533,-0.0051816963
1.142567,-9.794153,0.6722446,0.0030788728,0.0025535473,-0.006779451
1.0948535,-9.8276415,0.7346089,0.004144288,0.0022871047,-0.0075782575
1.1377281,-9.794175,0.5714723,0.0017475969,0.0030859257,-0.006246538
1.0804791,-9.775058,0.74898595,0.0014814328,0.0062815896,-0.0057137655
1.1281215,-9.751156,0.47070014,4.1632087E-4,0.0052161985,-0.005713625
1.0994792,-9.813338,0.82093775,-3.824751E-4,0.004417124,-0.004914536
1.161425,-9.789437,0.39871526,-0.0011812712,0.004949629,-0.0030501848
1.0898725,-9.799012,0.82571924,-0.0017137512,9.5476455E-4,-0.0019847807
1.1613541,-9.808588,0.34592193,1.5061174E-4,0.001487269,-0.0014520081
1.0945692,-9.822946,0.85448986,0.0012160268,0.0044166166,-1.2028811E-4
1.1374438,-9.756004,0.22595817,-3.8171688E-4,0.0060143853,0.0017440637
1.1135693,-9.775145,0.9168459,-0.0017131446,0.0033510998,0.0017442043
1.1516762,-9.794285,0.2163458,-0.0014466771,0.0014867621,0.0033422401
1.094427,-9.837337,0.9360209,-0.0027781047,6.876873E-4,0.00467396
1.1134627,-9.846912,0.15395671,-0.003310585,6.875602E-4,0.004407785
1.0800526,-9.827794,0.9264085,-0.0043756966,-6.441459E-4,0.0030763461
1.0752492,-9.803893,0.16353592,-0.004375545,-0.0025084838,0.0017449075
1.0513746,-9.770428,0.7920511,-0.0043753935,-0.004106506,-0.0011844266
1.0561069,-9.736961,0.18750887,-0.0030436623,-0.0043729483,-9.179701E-4
1.089446,-9.75132,0.6960768,-6.466678E-4,-0.0049057077,-0.0011841453
1.027429,-9.780025,0.32663104,0.0030819061,-0.005971098,6.8020646E-4
1.0321612,-9.837424,0.6288898,0.005478901,-0.0030417498,-0.0033143912
0.9844476,-9.837435,0.39378497,0.008941159,0.0017518095,-0.0027816189
1.0416257,-9.827881,0.55210704,0.011338154,0.009741159,0.003610103
0.974841,-9.803981,0.5089177,0.00840883,0.016132614,0.008137614
1.0224835,-9.789644,0.48492005,0.00574453,0.012937778,0.009201818
0.9890733,-9.813567,0.60006106,0.0025486704,0.0073486,0.0065339487
1.0557868,-9.780101,0.331371,0.0030813497,0.0062832963,0.002006623
1.0319124,-9.770548,0.61443824,-0.0019786044,0.0078811515,-0.0043849144
1.074787,-9.789688,0.5088764,-0.0070385584,0.009479007,-0.008113292
1.1176617,-9.799264,0.5712406,-0.0067721945,0.010544231,-0.0110427225
1.1319296,-9.818404,0.5712324,-0.0030437247,0.011343138,-0.01290689
1.1318941,-9.823197,0.55683047,4.1842926E-4,0.01187573,-0.010776319
1.1604655,-9.842338,0.56641793,0.0014837405,0.012142006,-0.006781535
1.1270552,-9.818438,0.5712075,0.0020164198,0.013739862,-0.0025204376
1.0841095,-9.813665,0.5855929,0.0025490997,0.011609294,0.0022732923
1.0793061,-9.808893,0.59518045,0.0022828314,0.0089460965,0.004936496
1.0697349,-9.828034,0.5855764,0.0017502471,0.003087107,0.0075996984
1.0410926,-9.856739,0.62395126,0.004413454,0.0012228561,0.0078660585
1.0458248,-9.847186,0.6095493,0.0049461327,0.0028207116,0.007067155
1.074396,-9.8328495,0.5855516,0.0036146017,0.0014890921,0.0049366727
1.088664,-9.837643,0.6047349,0.003082017,-0.0025056857,0.0025398736
1.1029319,-9.866346,0.5999287,0.0017504855,-0.0027720416,4.0939066E-4
1.0981286,-9.89027,0.5951226,1.5263795E-4,-0.0030383973,-0.0030526712
1.0933251,-9.899845,0.5711248,-0.0038420528,-6.415942E-4,-0.0019873634
1.0646828,-9.866379,0.5327334,-1.13582704E-4,0.0022878405,-0.0014546877
1.0265049,-9.813785,0.48474625,6.854129E-4,0.0017551689,0.0014748311
1.0217015,-9.818578,0.42236546,6.854604E-4,-3.75398E-4,9.422435E-4
0.97875583,-9.804242,0.4175593,9.51824E-4,-3.754378E-4,0.0036054465
0.9930235,-9.765993,0.45593408,-1.13392016E-4,0.0017550492,0.0049370704
0.95961344,-9.789917,0.4607237,0.0017508666,-3.7551767E-4,0.006268694
0.930971,-9.804275,0.44632176,4.1933544E-4,-6.4187334E-4,0.0076003177
0.93093574,-9.818633,0.5326755,0.0012183306,-0.0043703355,0.006002466
0.89275765,-9.880815,0.5614546,0.0014846942,-0.0022398485,0.0038719836
0.8498119,-9.861695,0.63821244,0.003348953,0.0028201134,0.0025404482
0.7305813,-9.914312,0.85890716,0.002283737,0.004151653,-3.8898212E-4
0.6304219,-9.971711,0.95965457,-0.0017109534,0.0028200336,-0.0014542013
0.6732966,-10.134324,0.88767797,-0.0041077486,-0.001973692,-0.0027857365
0.8210629,-9.952604,0.8204992,-0.0014445422,-0.0049032066,-0.0022530607
0.89731216,-10.105652,0.75811833,0.0012186642,-0.0019737717,0.0017417218
1.1118277,-10.378258,0.590184,0.0020176594,0.0022872423,0.0025407136
1.2738975,-10.239579,0.532601,0.0017513914,0.003618782,6.765467E-4
1.2690942,-9.89526,0.3310814,9.5249154E-4,0.0041513736,-9.2130445E-4
1.1069534,-9.665716,-0.07194956,0.0041483296,0.0057492293,6.7663507E-4
0.9019023,-9.316614,-0.13912828,0.0033494295,0.0012218193,0.0049377335
0.76836836,-9.464878,-0.23029648,-6.452608E-4,-0.0043708542,0.006003041
0.68728006,-9.488802,-0.2974752,-0.0022431083,-0.011028791,0.007867296
0.5728172,-9.397947,-0.30228135,-1.12533686E-4,-0.011028831,0.007867341
0.61569196,-9.507953,-0.05279941,-3.7880195E-4,-0.011295187,0.0044052787
0.6537988,-9.149285,0.32142767,-0.0017103336,-0.008099436,0.0020084796
0.92552805,-9.29755,0.63808006,-0.00144397,-0.0033057898,-0.0011872665
1.2163284,-9.7805805,0.9115515,0.0030834475,9.5522427E-4,0.0014759364
1.4117728,-10.20144,1.1418419,0.004415075,0.00574887,0.0038728237
1.4737186,-10.44057,1.2185999,0.004415123,0.008678305,0.0057370793
1.4844974,-10.574097,1.0653569,0.002817275,0.005216159,0.0046718596
1.2508523,-10.229772,0.74869084,0.0017575365,0.0022865422,0.004404542
0.8980123,-9.775454,0.6143447,0.0017577864,9.547536E-4,0.0028068784
0.5785469,-9.5554695,0.18252939,0.0012252177,-0.0017084578,0.0025406207
0.32583058,-9.440701,0.4080249,-6.389308E-4,-0.002241142,0.0014754155
0.19707727,-9.196806,0.70548874,-0.0027693948,-0.0025075106,-6.550533E-4
0.25426823,-9.067688,0.7390686,-0.004633543,-0.00463809,1.4395255E-4
0.42588633,-8.933789,1.1804693,-0.0033019008,-0.001974984,-1.22305E-4
0.5450587,-8.742501,1.6842422,-0.0019702588,0.0025523338,1.440692E-4
0.90262115,-8.771202,2.0968556,-0.0014375641,0.0017533331,0.0025409702
1.4604313,-8.981634,2.2072017,-1.0592188E-4,0.001220649,0.0030736604
1.8704399,-8.948164,2.1400259,9.594043E-4,-6.4361456E-4,0.0038726663
1.9228629,-8.780788,2.3655217,0.0017584148,-0.0030405102,0.0054706195
1.8894655,-8.551241,2.4806657,9.5953E-4,-0.0019752989,0.0065359417
2.032477,-8.321694,2.499852,4.269611E-4,-0.0027742996,0.007068632
2.1516495,-8.125624,2.528634,-0.0011708713,-0.008366986,0.00254132
2.3232675,-8.135195,2.7109482,-0.001969756,-0.004904931,4.108512E-4
2.3232446,-8.240414,2.3846867,-3.7179794E-4,-0.0017091936,-1.2172235E-4
1.9513334,-8.192597,2.0344353,0.0022914237,6.8759697E-4,0.0028078104
1.5841899,-8.106522,2.12559,0.0025578025,0.0014864918,0.0041394485
1.3648484,-8.001317,2.3990645,0.0028241812,-0.0027746144,0.0041395063
1.1121322,-7.7861166,2.9652102,0.0022916123,-0.0017094038,0.005471144
0.9023261,-7.547004,3.5457494,0.0020253593,0.0017526502,0.0060038343
0.7449659,-7.3939757,3.8959901,-9.0405275E-4,0.0014862817,0.004672313
0.5494634,-7.221817,3.9103787,-0.0014366216,1.5464972E-4,0.0014765807
1.5220724,-7.494419,4.0974913,-0.0017028747,-0.0022422452,-3.875721E-4
1.9177772,-7.8291926,4.0303154,-6.375484E-4,-0.004905457,-9.2014566E-4
1.8223985,-8.207007,3.4449675,-0.0027680127,-0.009166564,-0.001985351
1.8414468,-8.474827,3.0515351,-0.0038332134,-0.0059708254,-0.001186345
1.8175853,-8.465268,3.4737444,-0.0019689393,0.003083862,6.7792437E-4
1.6935998,-8.23094,4.0350914,-1.0466529E-4,0.0070785475,0.0022758779
1.688809,-7.7814035,4.2893744,0.00362382,0.004415336,4.1172502E-4
1.8890344,-7.2075253,4.558051,0.004955462,0.0025510727,-1.2084842E-4
2.0558848,-6.671906,4.812334,0.0030913139,0.003882599,-6.5342186E-4
2.3419304,-6.356276,4.9130845,1.6190181E-4,0.0030835993,-0.002251259
2.5516906,-6.126729,4.999441,-0.003033826,4.2038749E-4,-0.00358278
2.4086337,-5.9784822,4.941861,-0.0025011313,-0.0025091395,-0.005180617
2.4610567,-6.0024014,4.6971636,-0.0025010684,-0.0035744556,-0.0059795063
2.5993004,-5.9784966,3.9726772,-0.0019683738,-0.0025092447,-0.008376291
2.2798352,-5.734602,3.5936387,6.9484767E-4,4.201777E-4,-0.008376233
1.7744251,-5.6485267,4.05423,0.0046896487,0.0049474947,-0.009175122
1.3977462,-5.5528855,5.3016763,0.007352871,0.0060127056,-0.008908748
1.4215627,-5.586369,6.409984,0.0057550375,0.004148442,-0.009175005
1.6742336,-5.85419,7.1296616,0.0065540485,0.0017515466,-0.0062454725
2.1223845,-6.107662,7.4799023,0.0070867427,0.002284126,-0.0054464675
2.4084296,-6.3133116,7.58545,0.0036246995,-0.0025096126,-0.0057127243
2.0937319,-6.1507177,7.062475,-0.0011689235,-0.004640192,-0.008375825
1.8410157,-6.0885534,6.19885,-0.007560442,-0.004373929,-0.009441031
2.0030985,-5.9833484,5.421587,-0.015549855,-0.0062381923,-0.017696764
2.4703202,-5.9833555,5.080931,-0.017414004,-0.008102457,-0.024088286
3.2283783,-5.6964192,4.9417872,-0.025403768,-0.019287484,-0.039002243
3.8577056,-5.715556,5.0425377,-0.03925049,-0.031536967,-0.058977734
4.0626984,-6.2033653,6.4387183,-0.04644098,-0.027009627,-0.078685075
4.0912824,-6.58118,7.0048637,-0.045375686,-0.01902018,-0.10212084
3.7670488,-6.6529226,7.0096564,-0.056028284,-0.013960208,-0.12928504
3.1186051,-6.719883,7.278333,-0.062419835,-0.005704444,-0.14313343
2.2889848,-6.609895,6.913688,-0.04484295,0.010540795,-0.13407865
2.1888385,-6.289483,7.043226,-0.029929223,0.01160603,-0.09945755
2.6083822,-6.0312414,7.2303376,-0.021939714,0.020927055,-0.0453954
2.770465,-5.935601,7.748505,-0.018743888,0.0238565,-1.2166542E-4
2.7847457,-6.0073433,8.036373,-0.015814377,0.02012805,0.032368906
2.493887,-6.1412573,7.3502693,0.0012298727,0.008942755,0.048081573
2.0552263,-6.0790935,7.815659,0.03212255,-0.015558336,0.056337398
2.2554512,-5.7634635,7.887623,0.05662364,-0.015292048,0.06699007
2.179144,-5.696517,8.501746,0.05848789,0.0033500348,0.07551221
2.4175115,-5.7204356,9.408543,0.058221605,0.027318435,0.08962698
2.8370552,-5.7443547,9.178238,0.055025853,0.04782473,0.10374176
3.2422957,-5.5482845,8.362593,0.050764833,0.048091017,0.108535476
3.7238207,-5.8161044,8.616875,0.06274908,0.028649928,0.107470244
3.9574208,-5.6822047,8.444146,0.07020596,0.004148837,0.09868185
4.4484816,-5.1752796,8.314597,0.058488097,-0.017156461,0.079773456
3.8048053,-4.606184,8.520902,0.05209655,-0.03979334,0.058201898
2.7320275,-4.0036116,9.619613,0.043840792,-0.06535969,0.034233503
3.0085368,-3.7549348,10.224142,0.03212293,-0.082403935,0.010797735
4.000217,-3.9031959,10.377669,0.02147033,-0.0813387,-0.0067790803
4.381619,-3.99885,10.118578,0.0105514135,-0.07654505,-0.02142642
4.2290263,-3.6258314,10.48801,-0.0056938203,-0.0752135,-0.029415866
3.8332763,-3.1284714,9.9602375,-0.0075579965,-0.06749037,-0.034475837
3.847557,-3.209779,10.440021,0.0014967776,-0.04432091,-0.036340017
4.2957077,-3.4154277,11.250859,0.011883132,-0.015558828,-0.031812612
4.8439827,-3.3867407,11.888972,0.018541062,0.01639905,-0.025154682
5.1967773,-3.2193642,12.15285,0.019340046,0.038769554,-0.018230438
5.5114293,-3.1237237,12.0664835,0.010817972,0.052351635,-0.01157251
5.907134,-2.8320057,12.522278,0.003361162,0.06007477,-0.0081103705
6.007235,-2.4207284,12.30157,-0.001965121,0.056612633,-0.01450192
5.6210203,-2.3155231,12.397522,-0.012085089,0.045959964,-0.025953472
5.334929,-2.1577115,11.557887,-0.023004007,0.028915722,-0.032611337
5.454102,-2.1338067,10.694261,-0.032058712,0.019062005,-0.033143934
4.5863395,-1.8133945,10.819001,-0.028862886,0.010806184,-0.033143904
4.0856977,-1.3782052,9.902598,-0.026732326,0.005746153,-0.035008084
3.5421453,-0.74693847,9.120538,-0.023003867,0.002284018,-0.03687226
3.2703576,0.35778356,8.655137,-0.017677516,0.0054797796,-0.03527433
3.10823,0.9986151,8.664727,-0.011818531,0.0076102777,-0.031812195
3.1749563,0.8886135,8.631137,-0.008090074,0.00814288,-0.02542058
3.3227353,0.48210448,8.986175,-0.0032963539,0.010539694,-0.021159496
3.432372,0.07559551,8.794255,0.0014973667,0.0060122954,-0.020893147
3.3560648,-0.039188474,8.803844,0.003894244,-0.0014445783,-0.019561537
3.3989525,0.027757838,8.501573,0.0052258577,-0.014494085,-0.013702555
3.6134806,0.19991644,8.29046,0.012150107,-0.033668857,-0.0043814667
3.544354,0.52438915,8.534599,0.02573225,-0.049115203,0.00893436
3.2487035,0.65828145,8.784078,0.034002546,-0.047253393,0.024114506
3.1962113,0.5339255,9.230271,0.03933025,-0.035270344,0.036898956
3.363038,0.31392187,9.34541,0.040395655,-0.024351507,0.045421194
3.382063,0.08913593,9.206261,0.03773263,-0.017161092,0.050215006
3.6871562,-0.059131987,9.1102915,0.036134876,-0.010769624,0.051014077
4.049463,-0.16914085,9.038312,0.031873956,-0.004644474,0.049682625
4.0827904,-0.16437276,9.06709,0.026814088,-0.0070414315,0.039562747
3.9635491,-0.04004512,9.282983,0.020156326,-0.0113026,0.024116553
4.03502,0.08428244,9.599633,0.0076396195,-0.017694294,0.008936676
4.1064906,0.20382763,10.021836,-0.0038118274,-0.013433354,-0.003047412
4.0015526,0.34728473,9.863496,-0.014464325,-0.010237679,-0.022488344
4.1922183,0.37596476,9.925858,-0.02937788,-0.019825164,-0.039532434
4.616506,0.0077075213,10.021804,-0.041361958,-0.03074423,-0.043527044
4.997884,-0.2792493,9.637962,-0.046954453,-0.024885394,-0.044059552
5.083658,-0.36534628,9.258919,-0.041361682,-0.01183603,-0.04059732
5.579463,-0.5375262,8.7791195,-0.040029965,-0.011303512,-0.03820035
6.0037513,-0.7479649,8.481638,-0.039230883,-0.011037311,-0.030743375
5.8082247,-0.7001553,8.174563,-0.038698114,0.002278369,-0.0198243
4.7258873,-0.2841028,7.8051147,-0.031241138,0.019056156,-0.017161015
3.8914757,0.16064401,7.2965274,-0.026447315,0.013729723,-0.021688256
3.486166,0.28018922,6.8503127,-0.025914544,6.801309E-4,-0.02035655
3.8198657,-0.10719754,6.735153,-0.02831125,-0.0051789326,-0.015562739
4.1440296,-0.6524027,7.162154,-0.030974273,-0.001983256,-0.011035243
4.258411,-1.0780485,7.948998,-0.032572027,-0.0038475818,-0.010236168
4.2488284,-1.3076167,8.611095,-0.03470242,-0.012103487,-0.0065076193
4.239247,-1.2693722,8.970926,-0.038430706,-0.018495183,-3.822276E-4
4.277343,-1.2215624,9.172427,-0.035767414,-0.004913188,0.009471586
4.353581,-1.2454885,9.0380745,-0.024315694,0.014261441,0.022521192
4.434587,-1.274197,8.86534,-0.021120256,0.033702794,0.03636929
4.625253,-1.6281071,8.539072,-0.003544706,0.031839672,0.05208072
4.2390146,-1.4272616,8.035284,0.0017816116,0.045688096,0.060602833
3.9147577,-0.82469624,7.699421,-0.012599446,0.07072178,0.07498389
3.7812128,-0.76253957,7.685016,-0.027513137,0.08989653,0.094158635
3.456956,-0.9203722,8.140805,-0.028045768,0.09096179,0.11173548
3.0993242,-1.0447283,8.769318,-0.040296298,0.113332324,0.1388997
3.2089372,-1.4273328,9.469799,-0.04082893,0.11812601,0.16286813
3.7762594,-1.9247141,10.48694,-0.017925764,0.11972391,0.18790181
4.3197427,-1.9390755,11.369741,-0.0046099694,0.085635476,0.17032497
4.610532,-1.8386596,11.700785,0.006042666,0.014795454,0.10800706
4.5628076,-1.6569437,11.21139,0.0166953,-0.03900035,0.059537567
4.596136,-1.1595907,10.136651,0.008705825,-0.020890873,0.051548094
4.4196806,-0.6957144,8.836413,-0.013664709,0.024382828,0.056341775
4.1907797,-0.46617454,7.9200044,-0.033904716,0.060601786,0.044623878
4.1907334,-0.45662403,7.4641943,-0.035502613,0.061667047,0.025981765
4.2240615,-0.3562083,7.550546,-0.030176295,0.039296515,0.013731236
4.224015,-0.2749221,7.9391637,-0.029643664,0.019589141,0.010002813
4.190594,-0.2892835,8.33258,-0.021121556,0.016925983,0.012665972
4.1571736,-0.36103332,8.7643795,-0.017925764,0.03769862,0.017459657
4.071306,-0.47104228,8.98987,-0.01632787,0.048351258,0.015861763
4.1666155,-0.65756917,9.0762205,-0.005675233,0.031839672,0.00893755
4.1999445,-0.7627956,9.009039,0.009238456,0.0062733465,-0.0011824539
4.218969,-0.88715166,8.917869,0.012966879,-0.006509816,-0.0065087713
4.1760125,-0.9875958,8.754729,0.007640561,0.0041428194,-0.0065087713
4.047235,-1.0306515,8.653963,-8.81547E-4,0.02864388,0.004143864
3.9279943,-1.1550075,8.649155,-0.009403655,0.04994915,0.010535445
3.8611984,-1.2793635,8.615558,-0.009403655,0.047285993,0.0052091274
3.8659196,-1.4324137,8.716304,-0.011534182,0.030241776,-0.0038456128
3.8658729,-1.5519875,8.917804,-0.012066814,0.01319756,-0.012367721
3.894434,-1.6524315,9.071324,-0.018458396,0.011067033,-0.011302457
3.8896198,-1.7098343,9.26323,-0.021121556,0.021719668,-0.008639298
3.9801612,-1.7289782,9.325592,-0.018991029,0.022784932,-0.009704562
4.003954,-1.6859509,9.354368,-0.011534182,0.010001769,-0.013432984
4.0277467,-1.6381413,9.287187,-0.005675233,-0.0033140252,-0.0150308795
4.0181646,-1.5951141,9.21041,-0.0067404965,-6.508664E-4,-0.010237194
3.9609046,-1.5233927,9.100048,-0.00780576,0.008936506,-0.0011824539
3.8941088,-1.4612361,9.023271,-0.0046099694,0.012132296,-1.17190415E-4
3.8463845,-1.4182088,8.965685,-0.0014141788,0.009469137,4.1544135E-4
3.7938924,-1.403876,8.951282,-0.005675233,0.00733861,0.0025459684
3.7986135,-1.3704137,8.941674,-0.0072731283,0.008403873,0.0046764957
3.7556572,-1.370428,8.90328,-0.0062078647,0.0068059782,0.0020133366
3.7174683,-1.3369654,8.87928,-0.0030120742,0.008403873,0.0020133366
3.7031183,-1.3321972,8.860077,0.0017816116,0.0062733465,9.480731E-4
3.703072,-1.3178644,8.826481,0.0044447705,0.0036101877,4.1544135E-4
3.7077932,-1.3226612,8.8120775,0.005510034,4.143971E-4,4.1544135E-4
3.7458892,-1.3465871,8.816864,0.0071079293,-0.00171613,-0.0011824539
3.8078246,-1.356166,8.80246,0.008173193,-0.005977184,-0.0017150857
3.8792953,-1.341833,8.831237,0.005510034,-0.006509816,-6.498222E-4
3.9555335,-1.3848888,8.879205,-3.4891523E-4,9.4702886E-4,0.0014807049
4.007933,-1.4040325,8.879193,-0.0030109417,0.008935558,0.0030796502
4.0317254,-1.3705702,8.869588,-0.0037565401,0.00735759,0.0040850956
4.041215,-1.3514547,8.8647785,-2.807239E-5,0.0014986026,0.0030198742
4.0173297,-1.3419042,8.9079485,0.0021025,-0.0027624897,8.8938954E-4
4.04589,-1.2988772,8.874352,-2.7981354E-5,0.0025637897,0.002487327
4.0649147,-1.2701972,8.8311615,-0.006952149,0.011618492,0.0078136865
4.083939,-1.2367345,8.783171,-0.007484735,0.011618453,0.012607414
4.0934286,-1.2415313,8.797554,-0.0032236357,0.013748943,0.021129565
4.0981503,-1.2511104,8.840724,0.0042332546,0.010553114,0.02485803
4.0933356,-1.2463421,8.835916,0.0068964586,0.018009922,0.031782284
4.088522,-1.2272267,8.840702,0.005298609,0.021205675,0.02911917
4.064636,-1.2033291,8.850288,-0.002690822,0.012683527,0.021129733
4.0693574,-1.1985611,8.850277,0.0042334367,-0.007023886,0.019531881
4.059776,-1.20814,8.874255,0.019679803,-0.012350242,0.026988767
4.0263543,-1.2129366,8.869448,0.0074293176,0.0025634097,0.02698881
4.0406117,-1.2464274,8.874233,0.0021030456,0.010552848,0.012075162
4.0119586,-1.2655712,8.912606,0.014886254,-0.00755667,-0.0055016433
3.9785376,-1.270368,8.907798,0.0074294545,-0.013415658,-0.0055016014
3.9641876,-1.270382,8.855011,-0.0010926086,0.003628521,0.011010027
3.9784446,-1.2273548,8.869392,0.011157967,0.0116179595,0.01793428
3.9795728,-1.2270089,8.850464,0.032463282,-0.0022305043,0.012608005
3.9843059,-1.2031075,8.8312645,0.039387543,-0.021405285,0.0067490977
3.9795036,-1.1839887,8.840852,0.034061268,-0.02619901,0.0014228222
4.008076,-1.2079111,8.845641,0.026071839,-0.017144307,-7.0766266E-4
4.041416,-1.2461809,8.864826,0.01861504,-0.001165393,3.57643E-4
4.0795236,-1.279668,8.888806,0.013821399,0.001497728,0.0040861075
4.093793,-1.3083729,8.922384,-0.005353299,0.012150325,0.010477731
4.112829,-1.2988186,8.91278,-0.023995366,0.020672396,0.005684087
4.0984917,-1.2940469,8.912772,-0.024527952,0.01268288,-0.002837979
4.093689,-1.2797103,8.898371,-0.029854223,-6.329512E-4,-0.0076316227
4.0459766,-1.2701564,8.90316,-0.034115233,-0.017144572,-0.018284215
4.0316386,-1.2558196,8.883962,-0.034115188,-0.022470929,-0.027871544
4.0173006,-1.2701776,8.859962,-0.03038672,-0.014481491,-0.040654667
3.9981952,-1.2797527,8.85036,-0.021864565,-0.018742584,-0.047046207
3.9838572,-1.2749809,8.821564,-0.005885567,-0.03365631,-0.03958932
3.9838223,-1.2606444,8.831152,-0.004287626,-0.018742658,-0.019349268
3.9694843,-1.2750021,8.826345,-0.01014653,0.011084682,0.00674973
3.96945,-1.2415361,8.845529,-0.011211748,0.025998333,0.023261357
3.9408083,-1.20807,8.859915,-0.0042874897,0.02493303,0.033914033
3.936006,-1.2224277,8.879098,0.0052999277,0.015878253,0.034446705
3.9359713,-1.2128737,8.917473,0.013822081,-1.0073761E-4,0.024859378
3.9407048,-1.2415785,8.88388,0.0068979133,-0.005959725,0.010478362
3.969277,-1.265501,8.893468,-0.0026894128,9.6445E-4,3.5840156E-4
3.9740105,-1.2798587,8.89346,-0.011211475,0.010551783,-0.0028373466
3.9596725,-1.2942164,8.859866,-0.010146166,0.013214904,-0.003902568
3.964406,-1.2894446,8.87905,-0.008548226,0.0068232855,-0.0086962115
3.9786744,-1.2942375,8.898233,-0.01440713,-0.0011662294,-0.014022486
3.9595685,-1.3085952,8.903023,-0.017070243,-1.01003505E-4,-0.014022445
3.9499989,-1.2846941,8.893419,-0.011211248,-0.0022315688,-0.014022402
3.9642673,-1.3086165,8.888614,-0.0042869896,-0.006492661,-0.017750783
3.935626,-1.2894975,8.888606,-0.0016310519,-0.010217824,-0.014557887
3.968966,-1.3038555,8.8885975,-0.0021637226,-0.002228315,-0.0033726557
4.0023065,-1.3086482,8.88859,-0.0032290253,0.0068264576,0.004616785
4.011807,-1.2943118,8.893379,-3.3273478E-5,0.00682649,0.0062146443
4.0213084,-1.2847576,8.8981695,0.0036951099,0.0025654687,0.0072798715
4.021274,-1.2704213,8.850183,0.005292966,-0.0032934481,0.00568194
4.0260067,-1.2513022,8.816588,0.009021349,-0.0059565743,0.0024861132
4.0402756,-1.2369655,8.826177,0.0068907826,-0.004891278,-0.0039055045
4.0354733,-1.2274114,8.850158,0.0026296899,-9.755982E-5,-0.0044381716
4.030671,-1.2369868,8.869342,-0.00376193,0.0068266857,-0.0033729444
4.04494,-1.2130855,8.859737,-0.005892496,0.011620404,0.0024859686
4.0210667,-1.2083138,8.864528,-0.004827271,0.0100225415,0.0019533008
4.040103,-1.1987596,8.850126,-5.6625623E-4,0.0015004659,-0.0012425261
4.025765,-1.2035525,8.8645115,0.0026302114,-0.008620105,-0.007100847
4.0114274,-1.189216,8.869302,-0.0074891276,0.007890925,0.0019545085
3.997089,-1.1940091,8.845304,-0.0074891276,0.010021452,8.8924496E-4
4.020894,-1.2274963,8.864488,-0.0032280735,0.0057603978,-1.7601857E-4
4.068537,-1.2705483,8.888468,-0.0010975463,0.0036298707,8.8924496E-4
4.035128,-1.2657765,8.883663,-0.00216281,4.3408008E-4,-1.7601857E-4
4.0398607,-1.2657871,8.87406,-0.00216281,-0.005957501,8.8924496E-4
4.035059,-1.2418857,8.917232,0.52095515,-0.18511182,-0.2320089
4.039792,-1.2466787,8.883639,0.40910238,-0.2298528,-0.29592478
4.03499,-1.2753835,8.859641,0.5646308,-0.4945707,-0.3076428
4.025419,-1.2562646,8.859633,0.6056433,-0.32013372,-0.41123974
4.030153,-1.26584,8.840433,0.23919256,-0.29456735,-0.3672977
4.0301185,-1.2515036,8.864415,-0.07346236,-0.34356934,-0.3308125
4.025316,-1.2658613,8.850014,-0.1560204,-0.24503243,-0.35957474
3.9966745,-1.2515247,8.869197,-0.12033415,-0.25648394,-0.37129274
4.0109434,-1.2610999,8.88838,-0.014340527,-0.3683365,-0.26210332
4.001373,-1.2515459,8.8835745,-0.01194378,-0.28497955,-0.24692339
3.9822674,-1.2419918,8.859577,-0.065739684,-0.29669735,-0.2940614
3.9774652,-1.2420022,8.902749,-0.084381886,-0.36221102,-0.27328885
3.996502,-1.25636,8.888348,-0.050027236,-0.37126568,-0.19552468
3.982164,-1.2515882,8.902734,-0.0039546834,-0.48471615,-0.114564754
3.9725933,-1.2420341,8.888331,0.037324183,-0.25142336,-0.14279431
3.9630237,-1.2516094,8.893122,0.025073558,-0.13504323,-0.14226177
3.958221,-1.1942316,8.87872,-0.034581296,-0.08124736,-0.13587028
3.9629545,-1.2229363,8.8931055,-0.03510503,-0.09030696,-0.12041906
3.977223,-1.2564236,8.835523,0.0336045,-0.18831123,-0.076210596
3.977189,-1.2133927,8.883494,0.12068982,-0.24556915,-0.05783477
3.9676185,-1.194274,8.888284,0.20164989,-0.21254602,-0.08047158
3.9961905,-1.1990669,8.869084,0.19872046,-0.1733976,-0.1113642
4.000924,-1.2038598,8.883471,0.15744153,-0.25755346,-0.12388101
3.9913535,-1.1990881,8.883462,0.08020994,-0.22479664,-0.08952623
4.000855,-1.2086633,8.878656,-0.024984797,-0.32972512,-0.06049778
4.0055876,-1.2278035,8.917031,0.00564156,-0.44344202,-0.05836722
4.019857,-1.2278141,8.888235,0.078878455,-0.30655572,-0.074878775
4.005519,-1.2373893,8.864239,0.03227321,-0.180322,-0.045850314
4.0007167,-1.2469648,8.888219,-0.116863646,-0.09350306,-0.03679554
4.00545,-1.2469754,8.873817,-0.23324364,-0.1073515,-0.07407973
4.019719,-1.2565507,8.859415,-0.23723835,-0.13078733,-0.12041866
3.9863095,-1.2900379,8.878599,-0.14163092,-0.20668738,-0.07407968
4.0005784,-1.2804837,8.868997,-0.0596056,-0.268739,-0.04585016
4.000544,-1.2852768,8.868988,0.13826713,-0.1893769,0.0010214632
3.9909735,-1.280505,8.873777,0.20724298,0.012490511,0.030316241
3.9909391,-1.2805156,8.888163,0.095656656,0.03246418,0.0660026
3.9909048,-1.2900908,8.912145,-0.035104413,-0.02133166,0.069464736
3.9765663,-1.2853192,8.907338,-0.05001807,-0.07938855,0.050023705
3.9860673,-1.2853297,8.902533,0.16330099,-0.041838035,0.032180574
4.01464,-1.294905,8.902525,0.24053264,0.054834597,0.07319325
4.0146055,-1.2805685,8.84974,0.09006419,0.048442993,0.07132907
3.9954996,-1.2566673,8.85453,-0.039897934,-0.023728639,0.06626911
4.000233,-1.2471131,8.854522,-0.0095378915,-0.04050657,0.061209124
3.9954305,-1.2088647,8.820929,0.07009059,0.00956079,0.064138636
3.9763246,-1.180181,8.811323,0.12148959,0.04657867,0.07772077
3.9905934,-1.1754093,8.806519,0.13746858,0.11076077,0.071861856
3.995327,-1.1945493,8.825702,0.050915945,0.09637968,0.076655574
4.0048275,-1.1706481,8.854482,0.011234911,0.023941739,0.050024007
4.0047936,-1.1754409,8.892857,0.049051795,-0.0069509307,0.024191398
4.004759,-1.2137107,8.897646,0.08393922,-0.009347802,0.011408267
4.007094,-1.2464713,8.912584,0.03973081,-0.03331626,0.023658827
4.011851,-1.2369097,8.912581,0.01842557,-0.052491028,0.02472412
4.0166078,-1.2416955,8.888589,0.036801398,-0.026392097,0.026854679
4.0022936,-1.2751755,8.883789,0.0013814198,-0.0050868564,0.032979973
3.987979,-1.2751788,8.869392,0.0027130311,-0.07139955,0.023126317
4.0022717,-1.2656175,8.854997,0.05224782,-0.032517448,0.015403186
4.0022607,-1.2704033,8.859792,0.04319311,0.0023699072,0.033779014
3.968875,-1.2608417,8.878981,-0.014863719,0.028468836,0.06520432
3.9927034,-1.2895392,8.907765,-0.059338436,0.029534072,0.0777212
4.0260673,-1.2847604,8.89337,-0.052680507,-0.05089335,0.05535069
4.006985,-1.2847637,8.883771,0.01949113,-0.06474181,0.036974926
4.011742,-1.2943317,8.893364,0.02668169,-0.06341026,0.05721496
4.011731,-1.256076,8.883766,-0.02418461,-0.06420923,0.10568449
3.9735775,-1.2417322,8.859774,-0.09608986,0.011957088,0.14776243
3.978335,-1.2321709,8.917346,-0.12112352,0.12860341,0.16347508
3.9735565,-1.2226093,8.902949,-0.055876106,-0.0072177076,0.1648067
3.9735456,-1.1987009,8.87416,0.06689105,-0.07485821,0.1469594
3.9592314,-1.1747923,8.874158,0.080202036,-0.020530399,0.15148833
3.9687557,-1.2034898,8.9173355,-0.011410683,-0.03544404,0.19702828
3.9735126,-1.189146,8.917333,-0.06467392,-0.028786095,0.21407247
3.9401274,-1.1795847,8.902937,-0.041238178,-0.0053502475,0.25987875
3.9496522,-1.1987176,8.912531,0.029069157,0.019683497,0.3088808
3.963945,-1.2035031,8.912528,0.054369107,0.02367828,0.2931681
3.959166,-1.2178535,8.922121,-0.004486763,-0.0572817,0.2249912
3.959155,-1.2178569,8.926917,-0.021531038,-0.11240903,0.125389
3.9543762,-1.213078,8.926914,0.022144709,-0.12572478,0.12086156
3.968669,-1.222646,8.9125185,0.018682543,-0.10441946,0.17412469
3.9829617,-1.2513437,8.893324,-0.0034217332,-0.18085207,0.18451096
3.997254,-1.2656941,8.883725,-0.03271654,-0.3046889,0.22339302
3.9877076,-1.246568,8.898117,-0.05908187,-0.4839194,0.20048979
3.9924645,-1.2609184,8.922103,0.018948626,-0.22079931,0.14376447
4.0019894,-1.2609217,8.869324,0.06342331,-0.17206345,0.14323178
4.0115137,-1.2561426,8.87412,0.109229594,-0.15714972,0.210077
4.035342,-1.2370164,8.874117,0.08925583,-0.142236,0.2391054
4.0019565,-1.2274551,8.869317,0.046645243,-0.22639175,0.1999569
3.9924102,-1.2561526,8.888505,0.049574662,-0.22958748,0.15068841
4.044845,-1.2465913,8.888502,0.052504078,-0.16700321,0.11873045
4.0162277,-1.227465,8.8645115,0.041851383,-0.034111533,0.08517458
3.982842,-1.2131212,8.902891,0.03492711,0.03353275,0.053482942
4.0019026,-1.2035598,8.936474,0.07993443,0.1240802,0.019660775
4.0018916,-1.227475,8.902886,0.09591332,0.24472134,-0.030140352
3.9875774,-1.2561724,8.878895,0.01335535,0.31422985,-0.08100674
3.9780307,-1.232264,8.893286,-0.10808476,0.41143522,-0.17847839
3.9589486,-1.2179202,8.893284,-0.28944594,0.5898668,-0.3132343
3.9589381,-1.2561824,8.898079,-0.59064925,0.8599112,-0.5087102
3.9827662,-1.2705331,8.874086,-1.0721483,1.198665,-0.66397244
3.968452,-1.2466245,8.878882,-1.4561758,1.3171757,-0.76756936
3.9541368,-1.1988041,8.912465,-1.6961267,1.8546013,-0.97716004
3.9636621,-1.2131546,8.907663,-1.7211604,1.9185171,-1.2954077
3.9541159,-1.2370696,8.878875,-1.3318067,2.0423539,-1.718051
3.9445696,-1.2322907,8.88367,-0.8186159,3.0061512,-1.9268427
3.9445581,-1.2131646,8.902859,-0.14110845,3.2255957,-1.8117942
3.9445477,-1.2179501,8.912453,0.7553108,2.0498111,-1.4397509
3.9636078,-1.2609949,8.91245,1.2338804,0.91290855,-1.5952796
3.9731326,-1.2562158,8.898054,1.140936,0.31742626,-1.3904827
3.9588184,-1.2323074,8.917242,0.2021725,-0.22372755,-0.72788876
3.9492722,-1.2227458,8.936431,-0.36774358,-0.39736548,-0.53800565
3.9874034,-1.2370962,8.902843,-0.39437523,-0.749435,-0.71563834
4.0112314,-1.241882,8.878852,-0.454829,-1.029333,-0.39792356
4.001685,-1.2179734,8.850061,-0.48998272,-1.6298753,-0.14199406
3.9969068,-1.2179767,8.840464,-0.31687745,-1.5063046,-0.3236215
4.006431,-1.203633,8.86445,0.033061557,-0.42879048,-0.60059005
4.0016527,-1.2132012,8.864448,-0.24710281,0.18426871,-0.7784892
3.9825706,-1.2179867,8.864446,-0.35283026,-0.43997565,-1.0093852
3.9825597,-1.21799,8.898028,-0.16880606,-0.7664789,-1.0546589
4.0063877,-1.2419053,8.874036,-0.3376504,-0.94278,-0.9832862
4.0159125,-1.232344,8.874034,-0.26601753,-0.9784667,-0.89619946
3.9777594,-1.2514769,8.874031,-0.08811871,-0.6285274,-0.64346594
3.9825158,-1.2706097,8.878827,0.053827588,-0.4189368,-0.053576272
3.9586658,-1.2658306,8.898016,-0.065215684,-1.0663507,0.19276585
3.9777265,-1.2514869,8.893215,-0.12087577,-1.1260054,0.4162048
3.9777155,-1.2658373,8.912405,-0.03245896,-1.5587687,0.23990363
3.9777045,-1.2562758,8.859625,-0.091314845,-1.9342741,0.0047466485
3.982462,-1.241932,8.8980055,-0.20290126,-1.629076,0.06733082
3.9776835,-1.2228059,8.898004,-0.05429708,-1.1278694,0.25561607
3.977672,-1.1893325,8.926787,0.09031238,-0.9984397,0.4265908
3.9633584,-1.1749887,8.8932,0.013347019,-1.4517094,0.5211329
3.9538116,-1.1749921,8.907591,-0.12140889,-2.0700948,0.44230333
3.9490328,-1.1654305,8.936376,-0.12593631,-2.0698283,0.44922745
3.9490223,-1.1558692,8.917181,-0.03432373,-1.9928632,0.54962844
3.9728503,-1.2036963,8.917179,-0.14377962,-1.9981892,0.5395084
3.9728394,-1.2276115,8.921974,-0.31581977,-1.8165618,0.59516835
3.9871316,-1.2467444,8.912376,-0.39518195,-1.7590374,0.7248642
4.0014243,-1.2706597,8.902778,-0.46708733,-1.8418618,0.6494967
3.9918776,-1.2850101,8.89318,-0.4678864,-2.0045807,0.6260608
3.968028,-1.280231,8.893178,-0.75923604,-1.8288122,0.72486395
3.977553,-1.2802343,8.90277,-1.0732224,-1.7417268,0.85482603
3.9918451,-1.2850201,8.864385,-1.1901351,-1.8652973,1.0375187
4.00137,-1.2754586,8.849989,-1.1778847,-2.1076448,1.1038314
3.9918237,-1.2658973,8.883572,-1.0143667,-2.0589087,1.0473722
3.977509,-1.270683,8.859579,-0.8876006,-1.8455898,0.8801258
3.9584274,-1.2563391,8.883567,-0.86070275,-1.8245509,0.6755951
3.9441133,-1.2515602,8.902755,-0.87268704,-1.9044454,0.5514919
3.9297986,-1.2419987,8.897955,-0.8569745,-1.7907286,0.49716336
3.9393234,-1.2133077,8.912347,-0.79891765,-1.82242,0.43431276
3.9536161,-1.2085286,8.941131,-0.75337774,-1.709502,0.33764002
3.9869795,-1.2276615,8.902744,-0.66069984,-1.6208189,0.27265888
3.991737,-1.2085353,8.941126,-0.5989146,-1.4940524,0.24469563
3.9964938,-1.2133211,8.931527,-0.5642937,-1.3214797,0.24043453
3.996138,-1.2134302,8.912252,-0.5190201,-1.3062996,0.31074184
4.015195,-1.2182169,8.907452,-0.47667587,-1.3031038,0.31367126
4.029484,-1.2086564,8.907448,-0.39278644,-1.2370573,0.32778594
4.0294695,-1.2134434,8.878658,-0.20769694,-1.2069635,0.32725322
4.000849,-1.1943182,8.883452,0.008285148,-1.2317309,0.33204687
3.9865308,-1.2230167,8.873853,0.19284199,-1.243715,0.39116892
4.0055876,-1.2230211,8.864254,0.20855455,-1.3145549,0.4633405
4.0055733,-1.2182431,8.883443,0.048764948,-1.3973792,0.46893305
4.000791,-1.2182475,8.888236,-0.16162466,-1.3944496,0.44789404
3.9864736,-1.2325991,8.888233,-0.21275738,-1.2783359,0.4454971
3.9959946,-1.2373859,8.897826,-0.18745744,-1.1800652,0.43724126
3.9769092,-1.2230431,8.931407,-0.2023712,-1.1286662,0.45162225
3.9864306,-1.2230476,8.912212,-0.257765,-1.1795325,0.45668218
3.9768806,-1.2230519,8.897817,-0.27134717,-1.3707473,0.45188844
3.9530272,-1.2326212,8.90261,-0.20370299,-1.4993777,0.49263468
3.972084,-1.2326256,8.907405,-0.095046185,-1.5065682,0.41753355
3.9625344,-1.2230651,8.9122,0.038378652,-1.5702182,0.3325793
3.9625201,-1.227852,8.912196,0.18591955,-1.7023125,0.29396528
3.9672732,-1.2230738,8.936183,0.20642586,-1.9896674,0.26360527
3.9577236,-1.2326431,8.921785,0.22799744,-2.0091083,0.25561577
3.9720125,-1.242212,8.864208,0.18192476,-1.9049788,0.23191364
3.9719987,-1.2278695,8.89779,0.14197737,-1.5715513,0.17145991
3.9767518,-1.2087443,8.892988,0.1228026,-1.2280037,0.10621251
3.9672017,-1.2278782,8.888186,0.10708994,-1.0615563,0.099554606
3.981491,-1.2374473,8.921769,0.027727792,-1.0117552,0.14243144
3.991012,-1.2087575,8.921765,-0.1094249,-1.1164174,0.19942302
3.9766946,-1.247021,8.916965,-0.18665652,-1.1779363,0.2734588
3.9766803,-1.2613723,8.873779,-0.13579021,-0.9297299,0.44230306
3.971898,-1.2374649,8.88817,-0.09903864,-0.8074909,0.6127452
3.9623485,-1.2374692,8.864178,-0.04737337,-0.88738567,0.53950834
3.9384947,-1.2566032,8.888164,-0.07693445,-1.0823289,0.43697667
3.9670873,-1.2518253,8.912149,-0.20423347,-1.0586268,0.43457985
3.9575377,-1.2422649,8.921742,-0.32807034,-0.95609504,0.4660051
3.9956656,-1.2279222,8.907345,-0.46069568,-0.79497397,0.4715977
3.9813476,-1.1992323,8.892948,-0.57281476,-0.68525183,0.43910715
3.971798,-1.204019,8.888146,-0.62554526,-0.65222865,0.3847787
3.9860868,-1.2183703,8.87375,-0.66069895,-0.66527814,0.29023656
4.0099115,-1.2040278,8.88814,-0.7051738,-0.6394454,0.16080703
3.995594,-1.2183791,8.868946,-0.69984746,-0.6703381,0.06493329
3.9955797,-1.2279484,8.864144,-0.6266106,-0.6676749,0.0095395725
4.0003333,-1.2231704,8.892928,-0.4037042,-0.47166643,0.021790087
4.0146217,-1.2183924,8.897722,-0.25696418,-0.28631052,0.11793011
4.00984,-1.2136146,8.883327,-0.22500628,-0.15954416,0.21140696
3.9859867,-1.2184012,8.897716,-0.20583154,-0.13983677,0.28757328
3.9955077,-1.2375351,8.897713,-0.18905367,-0.23065045,0.3938333
4.000262,-1.2375394,8.888113,-0.016481007,-0.30921364,0.42632383
4.005015,-1.2423264,8.88811,-0.0947779,-0.29083782,0.37359327
4.005,-1.2375482,8.892904,-0.4513749,-0.34623152,0.28783953
4.0145216,-1.2566823,8.868913,-0.8231519,-0.853297,0.32539004
4.004972,-1.261469,8.9024935,-1.1131698,-1.1571633,0.472929
3.9811192,-1.2375613,8.916883,-1.4162372,-1.3334645,0.60848385
3.9524975,-1.2566953,8.912083,-1.6074522,-1.4740793,0.65455645
3.9715543,-1.2327878,8.921676,-1.792808,-1.2607603,0.62606066
3.9858437,-1.2280099,8.90248,-2.208261,-1.0522349,0.58691216
3.9810615,-1.2327967,8.864094,-2.3864262,-1.0671487,0.64070797
3.9715118,-1.2519307,8.859292,-2.223441,-1.0290653,0.69876486
4.004872,-1.2375877,8.859289,-1.7201039,-0.77286947,0.6478985
3.9953218,-1.2423745,8.868882,-1.0362047,-0.3302524,0.4446994
3.9953074,-1.2375965,8.873676,-0.5272751,0.14352354,0.10248351
4.009597,-1.2280363,8.87847,-0.09104971,0.16056778,-0.19552398
4.01435,-1.2376053,8.854479,0.14996617,0.25351202,-0.23307453
4.0143356,-1.2232627,8.854475,0.09750191,0.40744263,-0.10763977
4.014322,-1.2232671,8.849674,-0.074804485,0.39252895,0.25082138
3.9809327,-1.2089242,8.854468,-0.07187502,0.3946595,0.57865626
3.9809184,-1.2089287,8.868859,0.19737032,0.08067308,0.764811
3.9761362,-1.208933,8.90244,0.56968117,-0.11826596,0.84763646
3.976122,-1.2232845,8.888043,0.932141,-0.24024191,0.87720114
3.9761076,-1.2185065,8.859253,1.1052523,-0.05408638,0.6694729
3.9474864,-1.2232933,8.897633,0.96517026,-0.120931745,0.2889076
3.947472,-1.2232977,8.888034,0.9609093,-0.38458455,0.04549494
3.966529,-1.2424315,8.897626,1.1206988,-0.5238678,-0.22534823
3.9617467,-1.2615656,8.907219,1.1888758,-0.82853323,-0.42508507
3.956965,-1.2615699,8.91681,1.1705002,-0.9390544,-0.65278506
3.9521823,-1.2711393,8.916807,1.1028559,-0.85409975,-0.81790084
3.9664717,-1.2854906,8.859229,0.92788655,-0.5182755,-0.9337481
3.9855285,-1.271148,8.868823,0.7699613,0.080402546,-1.0413398
3.971211,-1.280717,8.892808,0.7920656,0.35444152,-1.1207017
3.9854999,-1.275939,8.907199,0.7419984,0.6529816,-1.0237627
3.9807181,-1.2663788,8.926387,0.75265104,0.7600404,-0.7342772
3.9854712,-1.2424711,8.902393,0.87995017,0.5107687,-0.41523075
3.9711537,-1.2376931,8.892795,0.8945976,0.08226638,-0.27168638
3.9329967,-1.180309,8.878398,0.8423998,-0.0050852965,-0.22374941
3.9472861,-1.199443,8.88799,0.49086288,-0.1781907,-0.18646511
3.9568071,-1.1803179,8.90238,0.14012493,-0.11560655,-0.17474714
3.9710965,-1.1611928,8.926367,-0.20288981,-0.0985624,-0.19791654
3.980618,-1.1516323,8.897576,-0.48997828,-0.061810873,-0.14891434
4.004442,-1.2090253,8.8975725,-0.59037924,0.14485018,-0.03626264
4.009196,-1.2042472,8.883176,-0.5198054,0.59146184,0.19569859
4.0091815,-1.1659925,8.883172,-0.30116004,0.7789481,0.31980187
3.994864,-1.1420852,8.8543825,3.0964566E-4,0.77229017,0.29210508
4.028224,-1.1564366,8.830388,0.12920663,0.84153223,0.30036098
4.0186744,-1.142094,8.801599,-0.004217546,0.5453889,0.3530916
4.0377307,-1.0894922,8.777605,0.040257297,0.37334877,0.343238
4.104466,-1.0560199,8.839974,0.28580064,0.9014531,0.19703065
4.142594,-1.0703715,8.873556,-0.110743634,1.0452635,0.051888578
4.147348,-1.1134171,8.926331,-0.5821226,0.8732235,0.03644234
4.1854753,-1.1708101,8.940721,-0.6449731,1.2657729,0.117935084
4.1997647,-1.1995088,8.945515,-0.39650032,1.4940054,0.111010954
4.1997504,-1.209078,8.902329,-0.14935908,1.461515,0.08997207
4.1765375,-1.1323678,8.8880825,-0.034310527,1.4633791,0.03830688
4.162226,-1.1610646,8.844899,-0.10594941,1.3696357,-0.1321352
4.1908255,-1.2710618,8.820909,-0.27266306,1.049524,-0.36729205
4.2051206,-1.3045408,8.868886,-0.37812406,0.95098716,-0.48846567
4.2146482,-1.328455,8.878479,-0.41940296,1.2423366,-0.47887823
4.2384796,-1.3523693,8.835297,-0.43911025,1.7035958,-0.33639914
4.252775,-1.3619363,8.782517,-0.3296543,1.7456735,-0.17154953
4.22416,-1.3762861,8.720142,-0.10568256,1.8141166,-0.110030495
4.1764746,-1.3858533,8.734535,0.033600733,1.9677807,-0.18326727
4.0858784,-1.3141199,8.782513,0.15424192,2.0127883,-0.3212188
3.9380684,-1.2232573,8.835288,0.22934309,2.070845,-0.41789138
3.8188658,-1.0989178,8.926446,0.26023582,1.8639174,-0.47355133
3.7807155,-1.0463141,8.91205,0.1798085,1.6010636,-0.48660073
3.680584,-1.0271871,8.859271,0.09458751,1.459117,-0.46502906
3.5613804,-1.0511014,8.883259,0.041590743,1.4370128,-0.41283107
3.5423017,-1.118057,8.883257,0.013095032,1.5328864,-0.3643615
3.5613647,-1.1945776,8.888053,0.12281595,1.7073244,-0.20324153
3.5327501,-1.2806628,8.892849,0.29724893,1.694278,0.0625381
3.5184388,-1.3428359,8.93123,0.37687734,1.4769642,0.32006556
3.5899482,-1.3667502,9.0223875,0.5126985,1.227959,0.46467504
3.6566892,-1.4002293,9.151931,0.8937965,0.99919385,0.42446133
3.7520375,-1.4624027,9.195109,1.4594513,0.91823375,0.104349636
3.842618,-1.5293585,9.19031,1.6815587,0.9520559,-0.5055137
3.9379659,-1.5341433,9.103946,1.4703702,0.8266212,-0.9763602
4.019011,-1.5054512,9.017582,1.9862242,-0.36780557,-1.3630509
4.061913,-1.4241533,8.888037,2.871458,0.37707996,-1.6216435
4.047602,-1.3811144,8.806471,2.7329738,1.9581972,-1.476768
4.0237546,-1.3332932,8.792075,2.0733094,1.0013244,-1.0221666
3.999908,-1.2759069,8.787275,1.8860892,1.4788287,-0.553717
3.966525,-1.2089561,8.787273,1.6682428,1.699871,-0.31296748
3.9808211,-1.1754819,8.806463,1.355588,1.6761689,-0.39659068
3.9998846,-1.1515723,8.825652,0.9353416,1.960328,-0.71110976
3.9569664,-1.1611397,8.8784275,0.5348025,1.849008,-0.94679934
3.9569583,-1.122883,8.936,0.29858023,1.4631163,-0.9798225
3.899737,-1.1228855,8.95999,0.028802238,1.1592498,-0.911113
3.8663545,-1.0846288,8.979178,-0.3738674,1.1861477,-0.82962036
3.8758817,-1.0750664,8.964783,-0.7826623,1.3962709,-0.78168356
3.828196,-1.0415922,8.974378,-1.0585656,1.5611205,-0.7318825
3.775742,-1.0368123,8.935991,-1.124612,1.727568,-0.62002987
3.7709665,-1.0559442,8.95998,-1.0087645,1.878569,-0.49779087
3.7614226,-1.1037704,9.017552,-0.7632213,1.878569,-0.37821507
3.7661834,-1.132467,8.964773,-0.32007167,1.9012059,-0.15184657
3.7947817,-1.1324694,8.926389,0.3124285,1.4580563,-0.074348666
3.8519878,-1.1181247,8.969567,0.5779454,1.1784246,-0.28846663
3.8948898,-1.127692,8.940779,0.24957791,1.3581878,-0.49805725
3.9425602,-1.1133473,8.902392,0.29751477,1.2354163,-0.42002672
3.9997659,-1.1516087,8.8975935,0.25037685,1.2676406,-0.22614878
4.0474358,-1.1516111,8.849614,-0.06627276,0.81303936,-0.1491835
4.0855703,-1.1420488,8.796835,-0.33551815,0.3901298,-0.0032424207
4.1141696,-1.1563983,8.792035,-0.58532244,0.315295,0.20102185
4.1380005,-1.1946598,8.758448,-0.66574985,0.12061812,0.2620082
4.1856704,-1.204227,8.763245,-0.39570555,0.17574552,0.16400391
4.2381086,-1.2090118,8.801625,0.066352464,0.78454363,-0.001111956
4.2953143,-1.2472732,8.78723,0.28553042,1.1688374,-0.082072
4.342984,-1.2807522,8.729653,0.25090933,1.2391448,-0.086599395
4.409725,-1.2711899,8.696066,0.22054932,1.2734996,0.02711748
4.4383245,-1.2329334,8.657681,0.23546298,1.223166,0.12219223
4.433549,-1.2185886,8.662477,0.29085666,1.1629785,0.17385751
4.428773,-1.1946793,8.633687,0.43013987,1.0913396,0.22152802
4.4383006,-1.1325107,8.648079,0.57128733,1.0181028,0.21913117
4.414454,-1.0846894,8.696057,0.6021799,0.8942659,0.18397747
4.338161,-1.0799094,8.70565,0.55211246,0.6567121,0.15867743
4.300011,-1.0751294,8.753628,0.5337367,0.46150264,0.0393679
4.2904677,-1.065567,8.787211,0.646122,0.39385843,-0.15850481
4.2141747,-1.0751342,8.815997,0.8437283,0.44152898,-0.26609644
4.1283464,-1.0751367,8.839984,0.975821,0.5003848,-0.28740174
4.0663576,-1.0894862,8.854377,0.9784848,0.62209064,-0.26742744
3.9996,-1.1134005,8.873566,0.96703345,0.8809495,-0.24345884
3.9614496,-1.1038382,8.897553,0.97129446,1.06524,-0.20830515
3.9280672,-1.1420997,8.935934,0.96623445,1.1062527,-0.1925925
3.8708458,-1.1229726,8.9839115,1.0077797,1.0705664,-0.20644094
3.8946772,-1.0799336,9.003101,1.094865,1.0583159,-0.23973042
3.8899012,-1.1229774,9.017493,1.1230944,0.9933348,-0.26849252
3.9041967,-1.137327,9.031886,1.1198987,0.83301264,-0.28393883
3.9280276,-1.1612413,9.01749,1.1864777,0.63673776,-0.28527042
3.975698,-1.189938,8.940722,1.2487955,0.6164978,-0.31563044
3.989993,-1.2425464,8.907135,1.2418714,0.6516515,-0.35770833
3.9709144,-1.2234193,8.849558,1.2538556,0.57228935,-0.40005258
3.9852095,-1.19951,8.815971,1.2735629,0.48227462,-0.40511256
3.975666,-1.2186418,8.79198,1.3619798,0.44072932,-0.2961894
3.9851937,-1.2425561,8.796775,1.4181725,0.18639766,-0.09245774
3.994722,-1.2234291,8.84955,1.3715672,0.052973397,0.04362968
4.018553,-1.1756078,8.839952,1.2586492,0.07134919,0.060673896
4.0137773,-1.2090868,8.873536,1.0301503,0.047114454,0.088903375
3.9851623,-1.2377833,8.897524,0.7875365,-0.0021539866,0.13923708
3.9470124,-1.2330036,8.92631,0.6077733,-0.025589785,0.07984864
3.918397,-1.2425706,8.950297,0.48393637,-0.123860344,-0.118823014
3.8850145,-1.2425731,8.964689,0.42641214,-0.16274247,-0.29885253
3.8707037,-1.2425755,8.974283,0.38646477,-0.078586645,-0.42481995
3.8754635,-1.1995367,8.964685,0.39578584,-0.00455083,-0.49858946
3.846849,-1.1851918,9.003067,0.36808896,0.23646505,-0.5712937
3.813466,-1.1947591,9.012661,0.25676894,0.5624357,-0.58833796
3.784852,-1.1851966,8.998265,0.10203942,0.82928413,-0.54173267
3.7943792,-1.1325929,9.051041,-0.028455373,0.88201475,-0.48047996
3.851585,-1.1469426,9.075027,-0.13178594,0.7669663,-0.4407989
3.8849516,-1.1899863,9.036642,-0.1578849,0.56856096,-0.4426631
3.951693,-1.1852062,8.993459,-0.19277227,0.39731985,-0.46689785
4.0136666,-1.1517321,8.974266,-0.21780597,0.20770292,-0.4812789
4.070873,-1.1421698,8.887902,-0.19357122,0.012759701,-0.5001874
4.097162,-1.16201,8.858575,-0.15948279,-0.092967704,-0.55691266
4.106666,-1.1476723,8.815388,-0.1546891,-0.066069804,-0.6240243
4.14001,-1.1428994,8.781795,-0.156287,0.047380768,-0.69060326
4.139979,-1.1429089,8.77699,-0.14350384,0.17121764,-0.73667586
4.154251,-1.1524831,8.738599,-0.123530135,0.32514825,-0.7417359
4.163756,-1.1333631,8.781774,-0.10408909,0.42901146,-0.65252006
4.149421,-1.1190256,8.776968,-0.10808382,0.3981188,-0.52495474
4.1207833,-1.0951233,8.781758,-0.13871016,0.329143,-0.40830836
4.1016808,-1.0951328,8.805741,-0.1813207,0.39652088,-0.3116357
4.120721,-1.1094894,8.834521,-0.26281336,0.59812206,-0.26396516
4.12069,-1.0951519,8.877695,-0.36507866,0.72621995,-0.21975674
4.106355,-1.0999438,8.863294,-0.5187429,0.9643063,-0.17581461
4.0920205,-1.1047357,8.858488,-0.6921146,1.1797558,-0.16169986
4.0919895,-1.0903982,8.848886,-0.8487083,1.3414096,-0.15344408
4.06812,-1.042584,8.86807,-0.90942824,1.3499317,-0.10763774
4.0776243,-1.0138992,8.834478,-0.83725667,1.3629812,-0.033069294
4.110967,-0.99956155,8.858459,-0.7560306,1.4327561,0.075853676
4.1395435,-1.0043535,8.829665,-0.66362274,1.3166426,0.13178036
4.163351,-1.0665339,8.82486,-0.5906522,1.0215647,0.12245928
4.1680875,-1.10002,8.805661,-0.5437806,0.808512,0.112072945
4.1537533,-1.0856825,8.757675,-0.4409827,0.7698962,0.10195292
4.1298833,-1.0569978,8.776859,-0.28918266,0.6947952,0.100088686
4.1060133,-1.0426602,8.800842,-0.16135105,0.47907925,0.06839708
4.1250534,-1.0139754,8.805633,-0.13418686,0.21302971,0.030313892
4.1440935,-0.9613789,8.834412,-0.23618585,0.01888547,-0.0027092942
4.144062,-0.96138835,8.853598,-0.42500386,-0.18165037,-0.012296684
4.177406,-1.0331336,8.843993,-0.60023975,-0.24876197,-0.015226176
4.196446,-1.0618374,8.853583,-0.6388556,-0.07752083,0.011139078
4.186879,-1.0714117,8.843979,-0.5174155,0.25404245,0.0470917
4.191616,-1.1288097,8.815185,-0.31847754,0.5970574,0.060673796
4.1677456,-1.138384,8.834369,-0.123268045,0.8681669,0.050820086
4.1724825,-1.0953522,8.781584,-0.0036922335,0.9648396,0.04922218
4.143844,-1.0905794,8.762386,0.047706716,0.9533881,0.021791622
4.1438136,-1.0858065,8.7815695,0.077534065,0.8729607,-0.022150517
4.1580853,-1.1145103,8.786362,0.13905302,0.7374059,-0.08606635
4.1628222,-1.1336492,8.791152,0.23918778,0.6180965,-0.15237902
4.124649,-1.1623532,8.805538,0.3185499,0.6005196,-0.19765274
4.0578685,-1.1432332,8.819925,0.29724458,0.67056066,-0.21895802
4.0101595,-1.1241132,8.805524,0.23093194,0.7714944,-0.24239384
3.9862895,-1.1384699,8.853496,0.17553821,0.8489924,-0.2815423
3.919509,-1.133697,8.911063,0.17660344,0.8716292,-0.3049781
3.9623876,-1.1337066,8.949439,0.25250345,0.8101103,-0.30258128
4.038642,-1.1863222,8.963825,0.365954,0.7643039,-0.30710867
4.0529137,-1.2293732,8.97821,0.45596877,0.738205,-0.32734868
4.062419,-1.2724242,8.963811,0.46102872,0.702785,-0.39019927
4.10053,-1.3059103,8.944611,0.37634027,0.6465923,-0.4578435
4.0814276,-1.3011374,8.896626,0.253036,0.5632355,-0.4937962
4.0527897,-1.3059293,8.839043,0.09883907,0.46150282,-0.5052478
4.033687,-1.282027,8.810248,-0.038579945,0.38799965,-0.5409341
4.028888,-1.2724719,8.786253,-0.05375997,0.42475128,-0.5782184
4.028857,-1.2724814,8.810234,0.012020033,0.5477893,-0.63760686
4.028826,-1.2772732,8.843813,0.04451055,0.70677984,-0.7153711
4.0383306,-1.3107594,8.877391,-0.015144226,0.7464609,-0.7404048
4.071674,-1.3251163,8.877384,-0.17733061,0.6295483,-0.7081806
4.0954823,-1.3012137,8.838992,-0.25482857,0.59306306,-0.5840774
4.0477734,-1.2820938,8.805401,-0.16055275,0.79652834,-0.44639212
4.0191345,-1.2868857,8.834181,0.02453676,1.0426042,-0.3688942
4.0292892,-1.3153902,8.86791,0.2770042,1.2375474,-0.3617037
4.0056353,-1.320116,8.877549,0.53186846,1.4015981,-0.41123846
3.97228,-1.3009806,8.848765,0.6919243,1.4961404,-0.4583764
3.9484406,-1.2244625,8.800787,0.7374643,1.4822918,-0.4535827
3.8912272,-1.1670738,8.771999,0.67780954,1.3424761,-0.41736376
3.8435493,-1.1240326,8.7624035,0.5944526,1.0993297,-0.3611712
3.786335,-1.090556,8.743212,0.6051052,0.9688348,-0.3260175
3.7815676,-1.0618618,8.791191,0.617622,0.86497176,-0.3057775
3.7958708,-1.0570793,8.853563,0.58246833,0.71956325,-0.2951249
3.7529607,-1.0857736,8.887148,0.51029754,0.5587078,-0.29645574
3.7386575,-1.052297,8.887148,0.42481628,0.486801,-0.28793263
3.6909795,-1.1240326,8.8391695,0.34465525,0.4577725,-0.27701363
3.6194625,-1.1814212,8.824776,0.26822263,0.49026302,-0.2490504
3.7386575,-1.1192502,8.978308,0.1811374,0.6172956,-0.22055455
3.7577286,-1.1766387,9.035883,0.08393213,0.76643246,-0.20510818
3.719586,-1.2148979,9.079064,-0.032181542,0.99093676,-0.10683761
3.7624965,-1.2483745,9.059873,-0.14989312,1.169102,0.02871723
3.9389052,-1.305763,8.954319,-0.23671204,1.2588503,0.1080794
4.101011,-1.3296747,8.973511,-0.19276989,1.237545,0.18397948
4.229741,-1.3822808,9.011893,0.010429185,1.0367429,0.17279425
4.306026,-1.4014103,9.050278,0.385402,1.2186366,0.091035314
4.244045,-1.3535867,9.055075,0.41789255,1.7518009,-0.045052055
4.1629915,-1.305763,8.992702,0.1912578,2.2154567,-0.2378647
4.039029,-1.3248925,8.867957,0.07940517,2.1350296,-0.24079412
3.9579763,-1.3248925,8.810382,0.19258946,1.869246,-0.05863404
3.853085,-1.3440218,8.748011,0.3377317,1.8138524,0.09289973
3.8340135,-1.3488042,8.676042,0.48953176,1.5517976,0.17119665
3.8435493,-1.3583691,8.700031,0.5771497,1.1954669,0.25242302
3.8387814,-1.3583691,8.733616,0.5670298,0.93554246,0.2673368
3.853085,-1.3488042,8.843967,0.48660243,0.8436635,0.22978628
3.8769236,-1.3344572,8.911139,0.30311084,0.9675003,0.11367258
3.905531,-1.3201101,8.930329,-0.03883871,1.2380773,-0.05384006
3.9293694,-1.3296747,8.973511,-0.34323773,1.3882794,-0.02268106
3.9102983,-1.3296747,8.954319,-0.65509355,1.3115803,0.16320747
3.9198341,-1.3488042,8.968713,-0.97600424,1.1669707,0.2652065
3.9150658,-1.3535867,8.987905,-1.1187494,1.3041234,0.30462128
3.905531,-1.3631513,8.992702,-1.098243,1.4186392,0.238575
3.9150658,-1.3918457,8.90634,-1.0282019,1.258317,0.13817395
3.8959951,-1.4157574,8.863159,-0.9776019,1.0841465,0.029517105
3.9341373,-1.3966281,8.858361,-0.97813445,0.8886705,-0.0383934
3.9293694,-1.3727162,8.90634,-0.8500365,0.6796125,-0.05969863
3.9532084,-1.3727162,8.963915,-0.5192721,0.7856062,-0.05916596
3.996119,-1.3870633,9.021489,-0.14749509,0.915302,-0.063959606
4.0008864,-1.3918457,9.040681,0.103640825,0.97415775,-0.06475851
3.97228,-1.4205399,9.055075,0.19472092,1.0218283,-0.07274794
3.97228,-1.4157574,9.011893,0.19924834,1.0180998,-0.086862646
3.9484406,-1.4157574,8.954319,0.14358835,0.98081553,-0.10390682
3.9246016,-1.4205399,8.90634,0.019751512,0.99279976,-0.12574467
3.8197103,-1.4109752,8.863159,-0.0968948,1.0354102,-0.05916566
3.7768002,-1.3870633,8.795988,-0.089171596,0.9696301,0.10701548
3.7577286,-1.3822808,8.776797,0.07408008,0.98321223,0.2660061
3.7577286,-1.3727162,8.795988,0.67169297,0.8676311,0.43698096
3.7815676,-1.3583691,8.867957,1.19527,0.9278185,0.55549157
3.7958708,-1.3440218,8.911139,1.4208397,0.76509935,0.3789242
3.8435493,-1.3488042,8.954319,1.6906176,0.3624298,0.05082305
3.8864594,-1.3631513,8.978308,2.1596,0.210896,-0.25117913
3.8816915,-1.3488042,8.992702,2.511137,0.093184344,-0.4932602
3.8721557,-1.3392396,8.992702,2.5470898,-0.06340944,-0.64426124
3.853085,-1.3248925,8.968713,2.2578704,0.005832904,-0.69752467
3.8292456,-1.3392396,8.944723,1.7758396,0.21009815,-0.66077447
3.8006392,-1.3631513,8.935127,1.1233656,0.35044658,-0.6919334
3.7815676,-1.3631513,8.90634,0.6935318,0.21835391,-0.70817864
3.7958708,-1.3679338,8.930329,0.78834033,0.10889805,-0.58913547
3.8101745,-1.3822808,8.930329,1.0067194,0.21462546,-0.56729746
3.8483167,-1.3918457,8.959117,0.957451,0.31289598,-0.559308
3.9007626,-1.3870633,9.011893,0.68367827,0.12674116,-0.43973216
3.9150658,-1.3774986,9.021489,0.6352088,-0.37473166,-0.14545311
3.8769236,-1.3727162,9.021489,0.63227934,-0.6053612,0.2265902
3.8816915,-1.3822808,8.983107,0.30657503,-0.84025186,0.321665
3.853085,-1.3583691,8.944723,-0.30728304,-1.0005741,0.20794813
3.8101745,-1.3583691,8.930329,-0.90090114,-0.8650192,0.09396496
3.786335,-1.3583691,8.911139,-1.2037022,-0.67140764,0.0042165252
3.8244777,-1.3727162,8.925532,-1.2694823,-0.594975,-0.048514
3.8340135,-1.3679338,8.935127,-1.1339276,-0.54943496,-0.04904661
3.8578525,-1.3727162,8.973511,-0.84603995,-0.66395086,-0.028540267
3.8292456,-1.3918457,9.007095,-0.42499453,-0.9118909,0.056680836
3.786335,-1.3822808,8.968713,-0.1831797,-0.10788332,0.2849136
3.7624965,-1.3583691,8.973511,-0.013270146,0.33659786,0.3030231
3.7768002,-1.3583691,8.954319,0.26636153,0.4897295,0.016733512
3.786335,-1.3440218,8.954319,0.13000785,0.89399695,-0.30178025
3.786335,-1.3535867,8.949521,-0.16586909,1.1054517,-0.692732
3.7672644,-1.3727162,8.968713,-0.33284912,0.94726014,-0.76863194
3.7624965,-1.3822808,8.949521,-0.20634905,0.92968327,-0.30231282
3.7577286,-1.3727162,8.973511,-0.20155534,0.30197668,0.028185196
3.7672644,-1.3679338,9.002298,-0.49237224,-0.3366488,0.11633577
3.7911034,-1.3870633,8.992702,-0.766145,-0.7401174,0.2502927
3.786335,-1.3822808,8.973511,-0.99943763,-0.99418277,0.27106535
3.7815676,-1.3727162,8.978308,-1.2218114,-0.9526375,0.14776109
3.7911034,-1.3631513,8.939925,-1.4519083,-0.71561635,-0.001109451
3.8054066,-1.3631513,8.954319,-1.6575042,-0.68259317,0.067600064
3.8054066,-1.3535867,8.987905,-1.5821366,-0.8069628,0.3163391
3.8054066,-1.3727162,8.954319,-1.2084955,-0.3390458,0.47905815
3.8340135,-1.3727162,8.973511,-0.5962353,0.3067702,0.39303815
3.8292456,-1.3774986,8.968713,-0.10275193,0.5110345,0.10887911
3.8483167,-1.3583691,8.949521,0.11695869,0.6154303,-0.1699536
3.8435493,-1.3440218,8.9159355,-0.008742391,0.5981198,-0.3435915
3.8244777,-1.3679338,8.930329,-0.4465657,0.33819538,-0.42268732
3.8292456,-1.3774986,8.891947,-0.72539836,-0.03784263,-0.31349778
3.8197103,-1.3631513,8.891947,-0.7040931,-0.16061427,-0.09858086
3.7768002,-1.3344572,8.9159355,-0.45695195,0.2148911,0.15654977
3.7911034,-1.3248925,8.930329,-0.15122126,0.4857343,0.36001515
3.818678,-1.3586856,8.930089,0.14385673,0.18213423,0.5602847
3.8282032,-1.3730358,8.954077,0.7491927,0.03193204,0.7064922
3.8043537,-1.3539095,8.98766,1.5944794,-0.029054314,0.8146164
3.813879,-1.3443478,9.02604,1.9590659,-0.40775552,0.6755995
3.842476,-1.3921748,9.006846,1.9350975,-0.5680777,0.31261098
3.8186264,-1.4113076,8.92528,2.040026,-0.5712735,-0.056502797
3.7566347,-1.3730518,8.930075,2.1577377,-0.6471736,-0.40803975
3.7470884,-1.3395783,8.934871,1.9998124,-0.28445134,-0.6589092
3.7375422,-1.3443637,8.901283,1.4613197,0.02447661,-0.73081625
3.7279968,-1.3443669,8.90128,0.6445289,-0.26873717,-0.61763203
3.7565928,-1.3539349,8.96845,0.13586557,-0.68711936,-0.30977085
3.7470474,-1.325244,8.963648,0.25544137,-0.73079515,-0.04318869
3.7136621,-1.363506,8.944453,0.28047508,-0.57100564,0.03084711
3.742258,-1.3682915,8.939654,0.15504026,-0.59816974,0.2036861
3.723177,-1.3635123,9.002024,0.10603812,-1.0106932,0.42765778
3.6850238,-1.344386,9.026011,-0.058278795,-1.614964,0.73125786
3.67071,-1.368301,8.978029,-0.05241986,-1.5648963,0.8894495
3.694539,-1.3922162,8.939645,-0.2020894,-1.4895291,0.65083045
3.7374387,-1.3826545,8.987621,-0.6084874,-1.4554406,0.26573762
3.794642,-1.397005,8.949235,-0.9064949,-1.3281417,-0.0075024753
3.8518453,-1.3970082,8.920445,-1.0146191,-1.1678195,-0.09378883
3.8804421,-1.3826641,8.99721,-0.9333929,-0.86741513,-0.062097263
3.8422894,-1.3587554,9.040388,-0.66521275,-0.7030981,0.01273749
3.7707615,-1.3157171,9.117152,-0.275859,-0.8951119,0.11393751
3.7850547,-1.3300674,9.073968,-0.06200735,-0.30255908,0.35814917
3.8041153,-1.3492,8.949221,-0.04229999,0.3091685,0.4809208
3.83748,-1.3922448,8.891644,0.14119163,0.36829066,0.4431039
3.866076,-1.4352891,8.819674,0.40377906,0.07134845,0.31846806
3.908976,-1.4065981,8.814873,0.35823902,-0.30309168,0.024455305
3.908966,-1.3683424,8.920424,0.1987158,-0.5726033,-0.33533743
3.8803487,-1.3970399,9.011581,0.041323118,-0.26607373,-0.34785432
3.8517313,-1.4161723,8.973196,-0.18371382,-0.012008374,-0.095120564
3.7945075,-1.44487,8.944406,-0.62180346,-0.0628747,0.17412476
3.7611227,-1.4161787,8.930009,-1.1890563,-0.7110875,0.26254165
3.6419177,-1.3874876,8.930007,-1.6303418,-1.2743456,0.28810793
3.6323714,-1.3827085,8.944398,-1.7227534,-1.3150918,0.34003955
3.6895747,-1.3827116,9.025961,-1.7126334,-1.094316,0.30675003
3.7515454,-1.4209739,9.08833,-1.3318015,-0.6839232,0.44949532
3.7324638,-1.430542,9.126711,-0.7573584,0.13233493,0.65083015
3.727686,-1.4305451,9.073932,-0.3469656,0.49692136,0.67426586
3.7610502,-1.4114188,9.0163555,-0.16693605,0.44712034,0.5264606
3.8039498,-1.3970749,9.030746,-0.020994961,0.47135508,0.29023838
3.8230104,-1.3875132,8.963573,-0.19916031,0.29318973,0.023389846
3.8659105,-1.3540397,8.877209,-0.49423832,0.0026391537,-0.16675971
3.8802037,-1.3301309,8.896399,-0.5269952,0.05590234,-0.25118184
3.86589,-1.315787,8.867609,-0.35175937,0.1520424,-0.23706715
3.8515763,-1.3205726,8.872404,-0.035376094,0.22448032,-0.07248393
3.84203,-1.3157934,8.886795,0.2546419,0.57441944,0.02685188
3.8372521,-1.2918845,8.877197,0.394724,0.9049174,0.07851715
3.7943316,-1.2871056,8.896386,0.4469219,0.9344785,0.18983717
3.794321,-1.2823263,8.79083,0.38353872,0.64845526,0.3008909
3.8276854,-1.277547,8.78603,0.6668988,0.40530887,0.42286354
3.8324428,-1.272768,8.814815,1.4373506,0.19518565,0.56534255
3.841968,-1.2823359,8.886781,1.9042023,-0.002420719,0.476393
3.8276544,-1.282339,8.997129,1.9699824,-0.4477009,0.2753245
3.8038049,-1.3062543,9.040308,1.6783664,-1.1225454,0.123258114
3.7990265,-1.3349515,9.03071,1.277561,-1.9957952,0.05188544
3.7942486,-1.3493017,9.001921,0.9489287,-2.3079185,-0.030138467
3.799006,-1.3923465,9.006716,0.5292149,-2.303125,-0.1582364
3.7751565,-1.4066967,9.01631,0.24186009,-1.9039174,-0.124414265
3.7846818,-1.4162644,9.030701,0.27914435,-1.59579,0.06653424
3.8085108,-1.4353973,8.992315,0.6618403,-1.070615,0.1176669
3.798965,-1.4832243,8.95393,0.9641088,-0.38192213,-0.0285405
3.7465086,-1.4736625,8.963523,0.91377515,-0.33824632,-0.012561532
3.7131233,-1.3923656,8.977914,0.692733,-0.70842534,0.31047964
3.7178807,-1.3541095,9.0067,0.8416036,-0.695376,0.8156809
3.7226381,-1.3636774,9.030686,0.69885826,-0.9505065,0.7288619
3.7083244,-1.3732455,9.011493,0.3353371,-1.5707563,0.44630077
3.6987786,-1.31586,8.905936,-0.16533673,-1.619492,0.38371655
3.6940007,-1.2967337,8.857955,-0.6135464,-1.6000512,0.28225023
3.6653833,-1.3684726,8.853155,-1.0396516,-1.4655616,0.22685653
3.6319985,-1.3684757,8.8387575,-1.3278055,-1.108432,0.22232918
3.6462913,-1.3302199,8.857947,-1.4503108,-0.6261339,0.23324814
3.6701198,-1.315876,8.886732,-1.2923855,-0.13504744,0.26999974
3.6939487,-1.3445733,8.944304,-0.8750685,-0.1393085,0.3560198
3.751152,-1.3732709,8.968291,-0.52486306,-0.31907174,0.5187388
3.8035874,-1.3684916,9.011471,-0.38398194,-0.24130751,0.5578873
3.8655586,-1.3637123,9.035457,-0.36587247,0.027138878,0.53338623
3.8846192,-1.4019746,9.035455,0.06848875,0.5011812,0.41540828
3.9179835,-1.4354544,9.04025,0.36676255,0.47641373,0.10914505
3.898902,-1.4641519,8.973079,0.030938243,0.4907948,-0.13266976
3.8464456,-1.4211136,8.944287,-0.45588717,0.45324424,-0.21629295
3.8178287,-1.4211168,8.925095,-0.68917984,0.03752514,-0.05703602
3.8082829,-1.4259024,8.877112,-0.7570904,-0.2562213,0.10807984
3.8082724,-1.3876466,8.886706,-0.9690778,-0.3800582,0.18717566
3.803494,-1.3733026,8.905895,-1.3914548,-0.8042994,0.1943662
3.8130198,-1.3828703,8.915488,-1.8852044,-0.91828257,0.23990625
3.8177767,-1.3685265,8.963465,-2.2513888,-0.7539657,0.36161262
3.8177667,-1.3541826,8.97306,-2.3547192,-0.67806566,0.46174744
3.8129883,-1.3733152,8.958663,-2.1701624,-0.5017646,0.5754643
3.7653003,-1.3972305,8.925075,-1.6287422,-0.26421088,0.7214054
3.784361,-1.3972336,8.953859,-0.9131514,0.09185347,0.68438756
3.7986536,-1.3589777,8.920272,-0.24842691,0.5848041,0.32432848
3.7652688,-1.3494161,8.934663,0.20723957,0.8668327,0.24256949
3.7557225,-1.3972431,9.001831,0.17421639,0.90172,0.14749475
3.7747836,-1.4115934,9.001829,-0.1967616,0.54885155,-0.054106362
3.784309,-1.3829023,9.030614,-0.3698669,0.6692262,-0.17341587
3.7747626,-1.3876878,9.006621,-0.4207332,0.5419272,-0.21229796
3.7604494,-1.3972559,8.968236,-0.49716592,0.44552085,-0.15983374
3.7480483,-1.3918902,8.949488,-0.56853855,0.15363866,0.007945295
3.7099152,-1.3679755,8.911107,-0.4425711,0.12860493,0.14962535
3.7289948,-1.3488433,8.896715,-0.25774783,0.4250145,0.1887738
3.7147002,-1.3823171,8.920707,-0.05135303,0.49958295,0.23591173
3.724245,-1.3823144,8.944698,0.18460286,0.43833026,0.21806858
3.7385569,-1.3679645,8.96869,0.79233575,0.2175544,0.32086653
3.7671733,-1.3918738,8.983086,1.596876,0.24525125,0.5736003
3.7862525,-1.4253477,8.987885,2.1050067,0.1424533,0.6103519
3.8148685,-1.401433,8.997483,2.393959,-0.06580538,0.43032202
3.8482523,-1.3870832,9.026273,2.6022182,-0.37393287,0.17758822
3.8339577,-1.3775158,9.026275,2.5934296,-0.75955826,-0.13586555
3.8291988,-1.3966427,8.9735,2.213397,-0.7758035,-0.32415086
3.819672,-1.387075,8.963906,1.5614556,-0.6945772,-0.38140878
3.8101454,-1.3870723,8.9399185,0.6724933,-0.7523677,-0.3084382
3.7958512,-1.420546,8.925528,0.21922359,-0.97900254,-0.025877073
3.791092,-1.4109788,8.92553,0.5284164,-0.7177467,0.1331135
3.7767978,-1.396629,8.930329,0.9675712,-0.013607516,0.06839876
3.7768064,-1.3679318,8.944725,1.1068544,0.22394626,-0.063960224
3.7672796,-1.353582,8.911142,0.95345646,-0.040771738,-0.056237064
3.724378,-1.3631439,8.939931,0.7366754,-0.5347877,0.19862725
3.7434583,-1.3535767,8.954327,0.58247846,-0.7763362,0.49690104
3.7768416,-1.3487914,8.963925,0.2019131,-1.0977795,0.2849136
3.767315,-1.3296592,8.968725,-0.47506183,-1.3819385,0.07585564
3.7959309,-1.3966099,8.983121,-0.96934414,-1.232269,-0.024012808
3.8293142,-1.3870424,9.016708,-1.2681506,-0.93692476,-0.020817013
3.848394,-1.3679101,8.99272,-1.3983791,-0.38511822,0.11740094
3.8340998,-1.3679074,8.987925,-1.3038368,-0.06607179,0.24816205
3.7714934,-1.3728814,8.930204,-0.9608219,-0.24796554,0.34350312
3.7857966,-1.3728814,8.98778,-0.5709355,-0.48498666,0.35735157
3.8001003,-1.4111404,8.968588,-0.31979963,-0.44237617,0.3373779
-6.036227,-7.2025795,4.693549,-0.35362178,-0.33478457,0.14935887
-6.3651624,-7.451249,2.4193597,-0.1445638,0.70438004,0.037506208
-6.7131686,-7.1929874,3.4892993,0.16169947,1.3517939,-0.2423918
-6.541485,-6.776908,4.108237,0.026943645,1.485218,-0.49406028
-7.337664,-6.599947,0.9416401,-0.2574817,0.91823167,-0.3486518
-7.275639,-6.6764517,0.4282759,-0.314207,0.01462187,-0.001375888
-6.1313233,-6.6620913,2.337846,-0.21194169,-0.25755298,0.19543155
-5.830909,-6.623819,3.5421264,-0.2809175,-0.2514277,0.24230316
-6.7415156,-6.628588,4.26182,-0.5696039,-0.035445534,0.2367105
-6.698562,-6.662051,3.5613382,-1.0234061,-0.23411718,0.17652313
-5.716351,-6.800727,3.0335805,-1.6194211,-0.4216036,0.013271517
-6.054822,-6.872449,3.7292845,-2.1214266,-0.3867162,-0.0045716413
-6.5601654,-6.8724356,3.5613685,-2.3571162,-0.34703514,0.14696209
-6.8652616,-6.853293,3.6957195,-2.1027844,-0.46474677,0.40582114
-5.883051,-6.872409,3.417452,-1.4457831,-0.30655515,0.5504307
-5.554029,-6.8676133,2.9424708,-0.76827556,0.36402825,0.48225382
-5.916339,-6.9536834,2.7985442,-0.23963848,0.97948426,0.4060875
-5.833348,-6.921074,3.0617695,0.07940796,1.0271547,0.18131688
-6.210019,-6.9497724,3.9589717,0.091924824,0.9115737,0.03484315
-6.2052665,-7.0167303,4.213256,-0.1618742,0.6095715,0.06626843
-5.714197,-6.9689116,4.266029,-0.3863785,0.37228402,-0.16968744
-5.5235,-6.992828,3.8006308,-0.33764267,0.47188616,-0.10763583
-5.6379423,-6.997615,3.6231053,-0.18264684,0.51076823,-0.04931264
-5.9192576,-6.968925,3.4119947,-0.043629937,0.6348715,-0.00963157
-5.890666,-6.997624,3.1816926,0.06263012,0.72994626,0.1826485
-5.6475224,-7.0693636,4.2084374,0.21522912,0.6436599,0.2945012
-5.5855556,-7.141104,4.462722,0.42695025,0.2686871,0.4841181
-5.6809273,-7.0837207,3.7478333,1.0621151,0.013288976,0.5187405
-5.6714063,-7.112419,2.8746138,1.6128712,-0.15822062,0.5267305
-5.4664054,-7.131553,2.9897597,1.8421692,-0.306026,0.35948423
-5.037318,-7.165034,4.040494,1.9308524,-0.4213409,0.1629432
-5.3377047,-7.294163,4.884919,1.9154063,-0.5153506,-0.039723065
-5.6142516,-6.868536,4.7073936,1.8546864,-0.7347949,-0.2232146
-5.514143,-7.18896,4.731379,1.6711947,-0.70896244,-0.2972503
-5.576139,-6.772898,4.241991,1.2341706,-0.4660824,-0.3614323
-5.5475473,-6.7633376,3.2776122,0.80327165,-0.15848765,-0.32361534
-5.3997607,-7.050285,3.2584174,0.7273717,-0.0402435,-0.13266675
-4.9992795,-7.007248,4.1220336,0.73323077,0.33446285,-0.14837928
-5.209078,-6.9689937,5.1055975,0.60380137,0.33286485,-0.18672866
-5.6763372,-6.988127,4.980849,0.4109888,-0.19870175,-0.13639484
-5.662049,-7.1698623,3.5126915,0.111383565,-0.81708735,-0.05916311
-5.337853,-7.117261,3.1528466,0.08288788,-1.2730201,0.13151917
-5.2711186,-7.012053,4.1316123,0.10925328,-1.368095,0.11527401
-5.328347,-6.9546695,4.6833663,-0.19567828,-1.4069773,-0.016552232
-5.4761643,-7.0694504,4.5682135,-0.6276425,-1.2479867,-0.08526162
-5.295003,-7.069455,4.1843786,-0.99595726,-0.7891247,-0.0248078
-5.29025,-7.0838075,3.6901927,-1.211673,-0.15795612,0.11767131
-5.423763,-7.155547,3.7861469,-1.2329781,0.19943969,0.23911145
-5.4952946,-7.1746817,4.572997,-0.91073585,-0.012015232,0.2596179
-5.514381,-7.112515,4.745718,-0.52297974,-0.3233386,0.21567589
-5.5859127,-7.002525,4.145978,-0.3509396,-0.466084,0.17333177
-5.5382495,-7.002529,4.0596128,-0.112320445,-0.60057366,-0.007230275
-5.3523197,-6.9594927,4.347482,0.08182396,0.7368646,-0.14944285
-5.442923,-6.9212384,4.1267757,0.21657991,1.6050544,-0.39445338
-5.5049195,-6.9690666,4.2899013,0.36784744,1.1579098,-0.5667596
-5.5621476,-7.0360246,4.7265058,0.27836543,0.38346314,-0.53133947
-5.6861258,-6.9786406,4.3954477,0.038681272,0.24604404,-0.19524874
-5.690908,-6.9116917,3.8628786,-0.18023024,-0.18272462,0.07373043
-5.514515,-6.883002,3.910854,-0.395946,-0.58166593,0.19836637
-5.3381205,-6.9403954,4.361852,-0.7493471,-0.61255866,0.16454436
-5.333368,-6.978659,4.961585,-1.134706,-0.27993023,0.029256012
-5.6432896,-6.949969,4.6065373,-1.3501555,-0.2090903,0.027658228
-5.8006425,-6.8638906,3.8244781,-1.6124765,0.10329812,0.05242572
-5.719604,-6.801724,3.5078144,-1.806088,0.42820343,0.11953743
-5.424016,-6.7873816,3.6277578,-1.5799857,0.10223264,0.27772918
-5.543226,-6.787386,4.371427,-1.0976875,-0.027196962,0.33605245
-5.832043,-7.0211043,5.4610176,-0.5922199,0.20769355,0.20262833
-5.7366605,-6.9063187,4.6933613,-0.18981642,0.52274513,0.022598902
-5.903507,-6.796316,3.609045,-0.036684666,0.6111618,-0.14171788
-5.917784,-6.624142,3.5130932,-0.15572773,0.52620703,-0.23679255
-5.8605433,-6.5284863,4.0600586,-0.39168352,0.509429,-0.30763245
-5.9797125,-6.5236964,4.4678855,-0.529635,0.5429847,-0.34757975
-5.7269917,-6.6336827,4.4295087,-0.4643875,0.511293,-0.17687114
-5.612538,-6.7149744,4.141641,-0.28409153,0.5328645,0.092906974
-5.431335,-6.8584375,4.5830536,-0.07982711,0.6692181,0.272404
-5.77459,-6.710176,4.861337,0.034955155,0.6007748,0.47613576
-6.2179685,-6.662344,4.4247355,0.06904336,0.29424548,0.74564725
-6.07014,-6.5953827,3.9497511,0.48050803,0.15736099,1.1480471
-5.812652,-6.66711,4.3239923,1.1020894,0.02020822,1.238861
-6.208353,-6.6001487,4.386371,1.3913085,-0.06234978,0.86468714
-5.4979243,-7.0114245,4.1704726,1.5087539,-0.14038041,0.29157546
-5.788733,-6.4757905,4.3719897,1.6584235,0.15230066,0.035645977
-6.251183,-6.4853473,4.4103794,1.6967732,0.11661425,-0.14811188
-6.227318,-6.494904,4.122512,1.565746,-0.69032294,-0.11988233
-5.8077245,-6.4757657,4.2424655,1.290109,-0.9023105,-0.11269171
-5.683735,-6.4614105,4.875793,1.0637406,-0.53532726,0.009281049
-5.6264944,-6.4135785,4.847012,1.155886,-0.26208726,0.020466398
-5.7361274,-6.2844467,4.4200063,1.1156725,0.21062338,-0.2077662
-5.893439,-6.2079206,4.33365,1.0954324,0.44311705,-0.4333357
-5.8791084,-6.1935654,4.6791043,0.86693347,0.13578844,-0.5555746
-5.7551184,-6.212686,4.4296203,0.67039245,-0.4453129,-0.46289656
-5.898126,-6.2700663,3.9978173,0.5276472,-0.9792763,-0.22241324
-5.902868,-6.1313696,3.8490884,0.3830378,-1.0248164,-0.11375629
-5.550023,-6.1935325,3.570817,0.07198096,-0.8708859,-0.0919183
-5.2734637,-6.1935244,2.884725,-0.33015594,-0.8461186,-0.17420982
-5.3449545,-6.2317753,1.9443448,-0.74853814,-0.51162595,-0.15610024
-6.274649,-6.6191387,2.3137887,-1.0481433,-0.14570798,-0.077270664
-6.417657,-6.5904365,2.4961145,-1.1834317,0.06894255,-0.0061642374
-5.6833887,-6.5665164,2.4241524,-1.117119,-0.08845022,0.038843233
-4.848996,-7.164305,3.9930685,-0.73735243,-0.41708413,0.043903317
-4.6344185,-6.757796,2.7312298,-0.32695958,-0.05809036,0.20182873
-6.0981073,-5.7630534,2.1986704,-0.017234115,0.21701387,0.25349408
-6.593932,-8.159016,4.885494,0.18543236,0.7933213,0.13365203
-4.9251747,-10.827573,5.562003,0.23416828,1.3296814,-0.14944166
-3.008491,-10.908865,2.0595503,0.16732307,1.7366121,-0.48819533
-6.574781,-7.824225,-0.81917727,-0.07369272,1.3469919,-0.7963228
-5.4018745,-6.748182,-0.80477744,-0.19300212,0.82554525,-0.7364016
-1.4588755,-7.9246383,1.4166515,-0.11976517,0.7509767,-0.3308024
-3.5519142,-4.973903,1.6997331,-0.06916506,0.32673547,-0.009359077
-6.112198,-6.0977535,1.3015146,-0.29899558,-0.11961003,-0.013087415
-5.5114274,-8.053738,0.75935936,-0.7780978,-0.21575014,-0.15396842
-5.683042,-10.272752,0.11644842,-1.1389556,-0.13612178,-0.22933573
-6.1979375,-11.339213,-0.98226213,-1.4231144,0.1046277,-0.18565986
-3.799707,-10.860968,2.448235,-1.6481514,0.013281277,-0.17394185
-3.456398,-12.037425,7.6347594,-1.5719849,-0.110822,-0.08286175
-5.1823163,-10.516621,3.6717095,-1.1224437,0.15256432,0.108086824
-5.0154166,-9.842298,2.606584,-0.6377487,0.6367265,0.15442589
-5.086658,-9.569618,2.1124656,-0.2044527,1.0575056,0.044171188
-5.162911,-9.158324,1.109714,0.040558014,1.2601719,-0.09324772
-3.1604023,-10.358689,1.9733416,0.057069696,1.0569727,-0.18193083
-3.6705256,-11.018649,2.9137352,-0.14666186,0.7001094,-0.24984127
-4.585912,-10.315629,2.7074335,-0.33334923,0.5640219,-0.30496857
-3.9756017,-9.665216,3.216017,-0.37276387,0.4915839,-0.2831306
-3.8706784,-8.58439,2.2132654,-0.28834164,0.53818905,-0.21069258
-3.536901,-6.838813,2.0933256,-0.10085516,0.82660913,-0.09804089
-3.7609558,-7.293129,2.4051957,0.06692394,1.0263461,0.04124241
-3.3175187,-9.110422,1.9014246,0.041092362,0.7656218,0.1421771
-2.4354434,-9.04346,1.858251,-0.18153076,0.525138,0.2345868
-2.7882295,-8.742161,1.618364,-0.08459161,0.40423045,0.39011544
-3.4413867,-8.086965,1.277721,0.579334,0.17493235,0.5693462
-3.6272988,-7.4413342,0.88430154,1.2320744,0.11607639,0.5011695
-3.9848533,-6.924828,0.20300856,1.4997221,0.056421492,0.3299285
-4.1230874,-6.8578644,0.39013362,1.7090465,0.009549752,0.19250968
-3.569991,-9.033836,0.7451848,2.1026616,-0.20616625,-0.05729444
-3.5461202,-10.516364,1.440886,2.4153168,-0.5015107,-0.33293122
-3.9179773,-9.746391,0.375762,2.2211728,-0.5358656,-0.41229323
-3.979927,-9.296838,-0.6413832,1.6808177,-0.6008468,-0.39311832
-3.698595,-9.5216,0.5005218,0.9830703,-0.7372007,-0.27700442
-3.016768,-9.531155,2.0502477,0.6147556,-1.0570463,-0.10549682
-2.969058,-10.009383,3.2113442,0.5913199,-1.0338769,-0.075935595
-3.3647542,-10.090673,3.2929156,0.5921191,-0.7827411,-0.17553759
-3.545899,-9.966322,2.947475,0.49304974,-0.44025907,-0.20003848
-4.089397,-9.373298,2.491683,0.5990436,-0.32787392,0.035384912
-4.399273,-9.052869,1.8199855,0.84698385,-0.39312145,0.25323147
-4.2895813,-8.842435,1.7096415,0.66535664,-0.7281469,0.10436105
-3.9891782,-8.909379,1.6328826,0.29704195,-0.9401345,-0.062352538
-4.50407,-8.995452,1.7432414,-0.13785172,-0.8240209,-0.16967769
-4.7090535,-8.97153,1.776834,-0.4875243,-0.6301431,-0.18645543
-4.4467926,-8.780225,1.2538713,-0.71682215,-0.46396217,-0.10602787
-4.2703524,-8.617615,0.95640963,-0.75836724,-0.2573012,0.05429445
-3.7029524,-8.7993355,1.5945362,-0.4550332,-0.031465467,0.1951757
-4.0462027,-8.732372,2.4821532,-0.06301609,0.26547655,0.370678
-4.2559543,-8.670192,3.7056222,0.08825151,0.20395748,0.54085404
-4.2273154,-8.64627,4.286174,-0.02173679,-0.008562734,0.49052048
-4.7088327,-8.631913,3.6912434,-0.24038197,-0.22401242,0.30543113
-5.257098,-8.627121,2.3622355,-0.40230182,0.124861225,0.120874375
-5.2809052,-8.770583,1.1483767,-0.4638206,0.7453771,-0.16887715
-5.0901623,-8.541019,0.51026475,-0.501371,1.1680202,-0.33292758
-4.746848,-8.311456,0.6302193,-0.60203826,1.4223518,-0.19950315
-3.969665,-8.478828,0.8461317,-0.4686138,1.2529747,0.02074024
-3.664494,-8.957056,0.57745725,-0.11308194,0.95763034,0.08172674
-3.5404992,-9.674404,0.5486772,0.04750671,0.7664153,0.1640185
-3.6548953,-10.363056,1.6426035,-0.059552103,0.52033937,0.15602918
-3.6787024,-9.722209,3.2642975,-0.31574783,0.19783066,0.06947669
-2.8586087,-8.851805,3.9695945,-0.6630236,-0.1292054,0.0020989215
-2.6964722,-8.555288,4.123134,-1.0118972,0.0241924,-0.016276715
-2.8311195,-8.37391,4.1084733,-1.2672939,0.20129232,-0.0405113
-2.7166843,-8.412168,3.8206017,-1.299518,-0.14172266,-0.004025868
-2.7691221,-8.407382,3.633486,-1.0758126,-0.14518493,0.081728004
-2.9693618,-8.48868,3.4367743,-0.6659522,0.30089402,0.095842905
-3.0074964,-8.904745,3.1441047,-0.26727712,0.6614856,0.057759892
-3.0503988,-9.287333,3.096128,-0.08218741,0.97520554,0.018611616
-2.9359636,-9.3829775,3.129715,-0.023864066,1.05004,-0.03358614
-3.2124882,-9.311239,3.0769398,-0.06381127,0.8886526,-0.09111021
-3.1648026,-9.052989,2.505993,-0.13145533,0.6588219,-0.14250901
-2.8501196,-8.646484,2.803464,-0.12666148,0.5261964,-0.21095204
-3.2649107,-8.058249,4.0269275,-0.047034696,0.5536284,-0.21974202
-4.7476892,-8.005642,5.1832204,0.070949435,0.6476404,-0.16009153
-3.1266284,-8.479094,4.6170716,0.21822222,0.7776025,-0.0668809
-0.7808617,-7.7712994,4.151678,0.37135392,0.88652563,0.021269755
-2.1396775,-7.0922,3.62871,0.48560357,0.8982434,0.10728987
-3.407905,-7.0300264,3.3744237,0.5734879,0.7427149,0.20662579
-3.3983617,-6.9009,3.4991708,0.65018696,0.36135045,0.3427133
-3.2886944,-7.0061097,3.9069934,0.7396692,-0.19471723,0.46122393
-3.207634,-7.3360915,4.46355,0.9386072,-0.5142963,0.49957356
-2.8786473,-7.7521553,4.6554675,1.2145107,-0.80378175,0.45483255
-2.5448933,-8.139526,4.6890545,1.4256992,-1.1041862,0.37760103
-2.4399939,-8.684714,5.087281,1.5018656,-1.2983305,0.31288636
-2.2969518,-9.029043,5.509497,1.3186405,-1.3622464,0.21035485
-2.6449933,-9.354242,5.7397976,0.82249403,-1.3710349,0.07852857
-3.0836234,-9.660312,4.722647,0.44219503,-1.1505255,0.06308234
-3.1360617,-9.975946,3.067377,0.2618993,-0.7651664,0.25349832
-3.5317807,-10.339405,2.515622,0.07015195,-0.67888016,0.39358056
-5.0288634,-10.626346,3.537574,-0.34290388,-0.8852751,0.46388802
-5.82031,-10.688513,4.8234096,-0.6595534,-1.079952,0.5539029
-4.59021,-9.856378,3.6959083,-0.73864913,-1.3345501,0.56029457
-3.350573,-8.665564,0.95151705,-0.8771333,-1.4991333,0.40663037
-2.854714,-7.6516967,-0.1567935,-0.89178056,-1.5702398,0.28598937
-3.6127863,-6.690437,-0.41107982,-0.7490351,-1.6871526,0.29371262
-3.4745126,-6.5708747,-0.56940836,-0.78179187,-1.7348233,0.380798
-2.6496744,-7.197364,-0.6653644,-0.8347886,-1.800337,0.44737706
-2.5733814,-8.101231,-0.53102154,-1.0031002,-1.948675,0.48759085
-2.6782656,-8.632072,-0.47824287,-1.2473117,-2.069849,0.5054341
-3.0358424,-8.985965,1.728788,-1.305901,-1.9942154,0.5898563
-3.4601698,-9.148564,3.7295098,-1.103501,-1.8610574,0.6782733
-3.2265391,-9.091172,4.6650996,-0.84410924,-1.9739754,0.6521744
-2.5161285,-8.837705,4.91939,-0.66807437,-1.8016691,0.68200195
-1.471972,-9.172468,3.652749,-0.5016268,-1.4061902,0.7017094
-1.6293017,-9.770263,3.1105895,-0.41880244,-1.1249607,0.70836735
-3.02626,-9.272893,3.0722082,-0.43904236,-1.049327,0.63806003
-4.065633,-8.904648,1.939908,-0.53891075,-0.98115015,0.51395696
-4.904758,-8.287719,1.5944618,-0.604957,-0.98274815,0.38559276
-5.8297043,-8.120334,2.0118804,-0.6307895,-0.9694325,0.29957286
-6.6116157,-9.545479,2.5012667,-0.53651357,-0.87861884,0.35683084
-7.398295,-10.501952,2.875504,-0.4430366,-0.8916683,0.45669937
-7.715343,-11.334814,2.3951626,-0.43238387,-1.0948675,0.4412532
-6.680771,-11.932623,2.092886,-0.6270607,-1.3015287,0.30995953
-4.5114613,-11.420921,1.4451615,-1.0598239,-1.5611868,0.23459221
-3.720046,-10.354464,0.7734474,-1.5884607,-1.8866248,0.24338073
-2.4518514,-10.273175,1.1428756,-2.060106,-2.0903566,0.3152861
-0.54000306,-9.608438,2.5102646,-2.2225587,-2.1598651,0.43139994
0.70912063,-9.22586,3.6617486,-2.0646331,-2.09302,0.47773898
1.052362,-9.861928,3.7337072,-1.7200204,-1.8432157,0.40556747
1.352693,-9.641952,2.879674,-1.324275,-1.4248335,0.2670833
1.338349,-9.89543,1.5554469,-0.9940433,-0.94013864,0.15549703
0.29892766,-10.220644,2.6973352,-0.8382486,-0.70045424,0.09451053
-1.365076,-9.766331,3.3546364,-0.85848314,-0.7917991,0.074267775
-3.739482,-9.092027,2.020814,-0.9026915,-1.0533214,0.096638374
-5.126953,-9.431588,3.7912257,-0.8502272,-1.1180363,0.08731738
-5.079315,-9.53203,3.8583868,-0.7426354,-1.0261573,0.07559956
-2.962452,-8.8816395,3.129098,-0.6856438,-0.9824816,0.064148046
-0.61673355,-6.571765,2.4381926,-0.6121406,-0.8573132,0.035386004
0.103164226,-5.0127225,1.8240532,-0.45501414,-0.6551795,0.013548171
-0.24015811,-5.8783455,1.5697557,-0.25554347,-0.45704052,-0.01681177
-1.2938828,-6.227471,1.9151943,-0.08962858,-0.2679563,-0.03545381
-1.9757191,-6.3805194,2.2654307,-0.01932111,-0.1726153,-0.030393738
-3.1867814,-7.0500646,3.0042963,-0.11572739,-0.3260133,-0.012017872
-4.4264507,-8.188283,4.467643,-0.35434633,-0.6154988,0.003162203
-3.7113209,-9.0539055,8.133221,-0.59589475,-0.8919347,0.035386495
-3.7876463,-9.422161,8.421084,-0.70561683,-1.0461316,0.14430976
-3.8639712,-8.613952,6.094099,-0.6275862,-1.1353475,0.2865225
-3.1011634,-8.953513,5.336023,-0.3237197,-1.1617129,0.38905418
-2.381266,-11.870774,4.865821,0.08853736,-1.1177708,0.40743005
-1.9522042,-14.309799,2.0974293,0.30265537,-1.0695677,0.23965113
-0.32165623,-13.425072,0.65805286,0.46111342,-1.0101793,0.04950166
-0.60776496,-11.756035,1.9678673,0.69520515,-1.0264246,-0.10389622
-0.5887342,-11.196509,3.1529367,0.8808274,-1.2887458,-0.23652145
-0.96066326,-10.024839,2.3900628,0.95086855,-1.4096533,-0.2615551
-1.3278246,-9.049247,1.1617936,0.8603213,-1.2618481,-0.1491697
-0.98458326,-8.74797,0.45169652,0.65818757,-1.3089861,-0.046105392
-0.45539778,-8.681029,0.5716343,0.4584507,-1.433622,-0.011750571
-0.9369862,-8.604523,0.71076363,0.4150413,-1.3148451,-0.100700006
-2.186191,-8.944084,0.74913734,0.62543094,-1.2546579,-0.1955084
-2.9109373,-8.886708,0.67236173,0.71225005,-0.9198988,-0.33345994
-3.5307922,-8.456306,1.6175365,0.53807944,-0.61523354,-0.27300617
-3.4783874,-8.360671,2.4907432,0.40678582,-0.91403997,-0.07300287
-2.69174,-8.303295,1.8286247,0.27895424,-1.3899466,0.01674565
-2.2817497,-8.504168,1.2048897,0.49893126,-1.4480035,0.13419102
-2.5249481,-8.585481,0.8402407,0.65765566,-0.74013597,0.181329
-2.8158245,-8.628534,0.4947832,0.3695019,-0.22880948,0.26335436
-3.178218,-8.647676,0.70108294,-0.007068679,-0.34039587,0.26548496
-3.9506426,-8.862896,0.8450102,-0.4097382,-0.8048508,0.31901452
-4.289197,-8.375106,0.67227685,-0.57725084,-0.96091205,0.25190297
-4.1319,-8.523372,0.5091391,-0.5162644,-1.0282899,0.0039629787
-4.3321886,-8.791197,0.7682158,-0.50800854,-0.95425427,-0.13292332
-4.9973183,-8.278758,1.7331414,-0.5532822,-0.8043185,-0.14730431
-5.5360723,-8.053985,2.366465,-0.5897674,-0.6184301,-0.04051156
-5.211854,-8.317013,1.9826354,-0.6062789,-0.46316794,0.08891803
-4.2058396,-9.139579,1.6611786,-0.623323,-0.22401635,0.15389918
-3.0615587,-10.588637,1.4500734,-0.6435629,-0.1582364,0.17760135
-1.9983311,-13.104164,0.6536256,-0.6899018,-0.18167226,0.24950673
-1.6216667,-13.405452,-0.59382385,-0.65634596,-0.09618493,0.3288689
-2.203331,-12.042472,1.6036114,-0.56766266,0.1821151,0.31848264
-0.6347159,-13.041986,9.20347,-0.6720584,0.5038246,0.16801427
1.4488217,-11.769872,0.6872181,-0.6968257,0.43857718,-0.012281492
-1.0113566,-10.20125,-1.1119885,-0.24009384,0.111008495,-0.18378878
-3.3428044,-10.531232,1.5028629,0.092211835,0.1455094,-0.29532376
-3.9912171,-10.579053,1.7427595,-0.005259701,0.49624735,-0.23114154
-2.6371536,-10.129507,2.0498264,-0.23216075,0.5910557,-0.090793006
-0.26754776,-8.623056,1.6324116,-0.33282807,0.24085028,0.06766501
-0.5345369,-7.7861376,0.8599532,-0.3392196,-0.19271202,0.18431143
-1.8504423,-6.9874783,0.92712545,-0.4798343,-0.36182263,0.18297994
-2.3939643,-6.4996734,1.3541394,-0.71179533,-0.41748276,0.12172735
-2.3033679,-6.2509875,1.4213119,-0.9070048,-0.5402545,-0.088395804
-2.0077562,-5.925783,1.6947931,-1.1762502,-0.42493975,-0.42928007
-2.017284,-6.030993,2.5872025,-1.5858439,0.27120993,-0.780018
-2.689536,-6.8392124,3.3212817,-1.7850481,0.81875527,-0.74060315
-3.7670517,-7.795685,3.8250616,-1.4936984,0.33725613,-0.36829355
-3.9911304,-8.804765,4.6071196,-0.94508755,-0.8164243,-7.7751605E-4
-4.429761,-8.833457,4.8949947,-0.70620215,-0.80630445,0.21680264
-4.568019,-9.4790745,4.837422,-0.9898285,0.2576275,0.3680701
-3.452345,-12.214592,4.9237857,-1.0681254,0.54871064,0.3017575
-1.7740707,-12.166765,0.9271457,-0.8039399,0.4224769,0.19443232
-1.626261,-10.889869,1.5508732,-0.48649123,-0.07766442,0.17392607
-2.7323833,-10.148597,4.2137036,-0.7970155,-2.608198,0.07059557
-1.6882267,-10.531186,1.5652704,-2.1251328,-3.4670665,0.14569673
-2.37955,-9.842521,0.3705979,-2.6348612,-0.6885932,0.62639695
-3.7955794,-8.866914,-1.0015966,-0.8902258,-0.13598785,0.3963001
-3.671609,-8.776046,-0.9680096,0.6528085,0.81715655,0.3395749
-2.1506717,-8.876474,0.85998815,0.64908016,1.1897324,0.45275924
-1.449797,-9.211238,3.1389873,0.15186846,-0.38925445,0.5302572
-2.4081173,-10.043367,3.7675128,-0.4742401,-1.713377,0.5414426
-2.9564066,-10.1198845,2.5296595,-0.907536,-1.4417349,0.45515627
-3.194789,-9.679902,1.5269021,-0.4912842,-0.12906405,0.3401079
-3.4331713,-9.115581,1.7572026,0.48742676,1.343929,0.11560368
-3.151863,-8.661252,1.7476087,1.3710629,2.395344,0.19656378
-3.080338,-7.910417,1.9875051,1.9969053,2.998017,0.39976287
-2.8467078,-7.1882753,2.1746244,2.3646877,2.7186515,0.5736672
-2.288867,-6.662211,1.368581,2.450175,1.1348709,0.4365146
-2.1648965,-6.3274426,0.7160698,2.078132,-0.6582341,0.014936635
-1.5784488,-6.662206,0.9271788,1.6299224,-1.8691723,-0.310235
-1.0063045,-7.967793,1.2438414,1.320996,-2.3733084,-0.5097055
-1.1731696,-8.398205,2.0738783,1.234976,-2.08116,-0.6045138
-1.7929763,-8.240384,2.6160417,1.3707972,-0.6164228,-0.6151664
-2.379408,-8.579929,2.5632665,1.5649416,1.2720232,-0.5134337
-2.6086497,-9.077415,2.323282,1.7774618,2.4267688,-0.4372673
-3.0282164,-9.350011,1.838695,1.6861154,1.7199663,-0.4769483
-3.1617146,-9.412182,1.5748111,0.83443743,-0.64678305,-0.32008818
-3.2809095,-9.182628,1.7763226,0.21365516,-2.533631,-0.16961962
-3.3428912,-8.895685,1.8243014,0.54468584,-1.8537266,-0.20131113
-3.500229,-8.541789,1.7331414,0.98890084,-0.47820523,-0.283869
-3.781529,-8.312235,1.9106634,0.7244492,-0.63666326,-0.32967526
-4.120043,-8.297888,2.539187,0.18675756,-1.1072435,-0.21782249
-3.824439,-8.575266,3.1725082,-0.3570594,-1.1333425,0.037840817
-3.3571944,-8.933945,3.0285718,-0.8050026,-0.6699529,0.40003046
-3.0854297,-9.622606,3.4267967,-1.0275943,-0.06262692,0.8300732
-3.0997334,-11.133838,3.6810846,-1.0707378,0.24044092,1.1722887
-3.872117,-12.34378,4.1560755,-0.8933714,0.29929674,1.3951951
-4.663573,-12.635504,5.2883773,-0.31093857,0.38238728,1.257776
-4.787535,-12.702457,5.4083247,0.626227,0.47719574,1.0061076
-3.3571944,-12.52551,4.779801,1.4257072,0.93099797,1.3754877
-2.2510643,-11.396869,4.4583426,1.9159948,0.4316557,2.1113186
-2.3845625,-10.445176,4.8565674,1.6877621,-1.0261574,2.0007975
-2.551436,-10.35431,5.777762,0.8930755,-1.2072523,1.4335446
-1.9030147,-10.076932,5.825741,0.037402608,-0.79392993,0.56775165
-1.173541,-8.910033,5.091664,-0.4528849,-0.012026541,0.15176623
-0.92561525,-8.006164,4.731822,-0.71999973,0.91075796,0.16401675
-0.61094034,-7.3557606,5.072472,-0.34769017,1.3650929,0.009553531
-0.2867298,-6.743616,4.8805566,-0.02065425,0.93232954,-0.16834547
0.11853346,-6.212772,4.357587,-0.0869669,0.32832518,-0.3832624
-0.61094034,-6.361026,3.9401708,-0.41506806,-0.20883398,-0.47167927
-1.5454297,-6.7531805,4.1560755,-0.6989608,-0.4908625,-0.41175818
-2.2081542,-7.1214232,4.4439487,-0.90002924,-0.6828762,-0.24051708
-2.427473,-7.2505484,4.5447044,-1.0598189,-0.29778346,-0.0564928
-2.3893309,-7.2983713,4.679045,-0.9956367,0.077455595,0.17759885
-2.451312,-7.3557606,4.7989926,-0.68218285,0.77520317,0.30250102
-2.3035102,-7.4370604,5.024493,-0.37006068,1.108098,0.31102312
-1.6503214,-7.523144,5.163632,-0.37645227,1.0564327,0.3389863
-0.9208475,-7.537491,5.1540365,-0.6020218,1.0769391,0.35416627
-0.32964,-7.719221,5.07727,-0.81187874,1.1014402,0.24471045
-0.057875246,-7.910516,5.07727,-0.8190692,1.5733519,0.1514999
-0.2867298,-8.364841,5.024493,-0.6462302,1.4599013,-0.1353223
-1.0877206,-8.776126,4.808588,-0.14422481,1.5690908,-0.32360762
-2.0746558,-9.211323,4.8469715,-0.26513225,0.03191556,-0.4519719
-2.403634,-9.584348,4.8469715,-0.6616765,-0.803251,-0.15050231
-2.0889592,-9.565218,4.957323,-0.7346471,-0.5103035,0.03378828
-1.5740364,-9.311752,5.082068,-0.50241965,7.566218E-4,0.029527225
-1.3070395,-9.402617,5.1012597,-0.35141858,0.70383054,-0.021605425
-1.5025194,-9.6513,4.6646514,-0.3447607,1.0899885,0.07533355
-1.8934792,-10.349527,3.9209793,-0.3151996,0.9762717,0.19038203
-2.3750272,-11.368174,4.0265326,-0.21852694,0.6545621,0.18931675
-3.0234485,-12.319867,4.4055657,-0.16845956,0.48625046,0.04577249
-3.4382472,-12.6546335,5.029291,-0.00707214,0.57733047,-0.051432807
-4.120043,-12.257695,4.5734916,0.24140057,0.29796517,-0.1454423
-4.267405,-11.167179,3.9978483,0.5487291,-0.013624441,-0.102032825
-3.914579,-10.248961,3.7483597,0.7830871,-0.0051023313,0.007689322
-3.7476969,-9.163359,3.5084672,0.9274303,-0.20723608,-0.086320184
-3.5331368,-8.096886,3.2829685,1.1255693,-0.60777515,-0.22613601
-3.4854503,-7.4034386,3.2733748,1.449143,-1.3020607,-0.546514
-3.5569582,-7.149969,3.0814614,1.6819031,-1.9436157,-0.91296464
-3.633234,-7.5660334,2.1938539,1.6763105,-2.3665252,-1.2077763
-3.9479003,-8.24991,1.0999368,1.5897578,-2.043484,-1.2658333
-4.224424,-8.771188,0.65373534,1.5508757,-1.3784933,-1.0826079
-4.224415,-9.062909,0.9799938,1.6078672,-0.48979723,-0.6794056
-3.857285,-9.115513,1.4597849,1.4539367,0.28891042,-0.24318026
-3.4901557,-8.809438,2.0787148,1.1135854,0.32006916,-0.033323076
-3.0610447,-8.374239,2.6544635,0.7628513,-0.077807024,-0.06474866
-2.4459891,-7.9916453,2.7312317,0.6214376,-0.3055071,-0.025866527
-2.4602833,-7.6616592,2.678457,0.58655024,-0.41682717,0.17413671
-2.6652899,-7.790781,2.6016932,0.5489997,-0.42241982,0.4316642
-2.8226185,-7.929467,2.467354,0.38415024,-0.28180507,0.5112927
-2.7320218,-8.02033,2.3809943,0.1402049,-0.047447104,0.38825473
-2.69387,-8.269011,2.2562513,-0.10160989,0.17359504,0.33499157
-2.9131804,-8.455521,1.8148472,-0.2797752,0.26387614,0.3416495
-3.2278466,-8.35987,1.1335491,-0.42385206,0.45402566,0.3208769
-3.3518,-8.374214,0.7785073,-0.47285417,0.8332594,0.20449688
-3.2707386,-8.522465,0.9944143,-0.4584731,1.2095637,0.08119264
-3.1706061,-8.661152,1.4454181,-0.342892,1.4820049,-0.06634633
-3.2325788,-8.675496,1.9923798,-0.0022739402,1.6897314,0.04577266
-3.1801238,-8.957653,2.2658613,0.3505946,1.4937228,0.4804002
-2.9464927,-9.35937,2.025969,0.38921043,1.0913194,0.6316676
-2.5364528,-9.727611,1.4454263,0.28028727,0.93392664,0.4897213
-2.1502519,-9.918903,0.7977134,0.4493979,0.9155509,0.53419614
-2.0072088,-9.765864,0.55302304,0.59214324,0.64364237,0.45856237
-1.7878811,-9.388054,0.5338336,0.32609367,-0.06901892,0.21914442
-1.3396987,-9.005461,0.66337866,-0.0880275,-0.31775796,-0.22427149
-1.2443337,-8.852422,1.0472119,-0.28563386,-0.44372544,-0.32760203
-1.6686594,-9.129797,1.5413965,-0.28084016,0.32326433,0.105161294
-1.8593626,-9.54586,1.6709416,-0.3855023,0.7805286,0.17999609
-1.8879604,-9.431081,1.5845817,-0.43423808,0.051622078,0.09370975
-2.0262177,-9.321083,1.6373605,-0.4166612,-0.10071062,-0.031991333
-2.3885622,-9.196738,2.2083116,-0.34795168,-0.0048369276,-0.08924922
-2.822423,-9.268473,2.9231992,-0.30267796,-0.56143713,-0.02160497
-2.8557887,-9.603237,3.5613208,-0.3958885,-1.0027225,-0.03705127
-2.5649438,-9.780182,4.08909,-0.34422317,-0.3710213,-0.1403818
-2.1644397,-9.674967,4.3001995,0.034211706,0.47506425,-0.057823867
-1.9117372,-9.330632,3.906775,0.15192334,0.9280675,0.04044671
-2.0881371,-8.976733,3.071944,0.004917005,1.380272,0.15576151
-2.4361777,-8.718482,2.2898903,-0.1143925,1.7930615,0.22340576
-2.6507201,-8.512838,2.2371156,-0.12584406,2.03967,0.05562677
-2.6459432,-8.503271,2.8896303,0.091203414,1.705976,-0.25250068
-2.5410428,-8.531962,3.4078045,0.31437612,0.7088894,-0.26847962
-2.5458016,-8.503265,3.3022532,0.25898433,0.6388468,-0.36701474
-2.3550806,-8.565433,3.0239775,0.35432607,0.9829263,-0.4953784
-2.0752501,-8.585012,2.8796988,0.55486196,1.4492455,-0.541451
-1.7605957,-8.494154,2.9180772,0.71225464,1.8615025,-0.4687468
-1.5651366,-8.59459,3.153169,0.71545047,2.0806806,-0.38112888
-1.4173553,-8.690245,3.1243768,0.7303642,1.7200887,-0.30442992
-0.95966697,-9.053711,3.244319,0.81718314,1.3826665,-0.29777202
-0.91200966,-9.096759,3.4554214,0.9583305,1.2519054,-0.4019015
-1.2839191,-8.919817,3.4842038,1.0869612,1.2484434,-0.5774036
-1.2171906,-8.929388,3.5417738,1.2366306,1.4705508,-0.78965735
-1.3840843,-8.690276,3.9831746,1.3085359,1.7360677,-0.97954065
-1.4031763,-8.790711,4.6884594,1.2355653,1.8649646,-1.0336027
-1.3412155,-10.674974,4.9907217,1.1972159,2.118231,-1.0173575
-1.9467473,-11.315821,3.11954,1.145018,2.2660363,-1.0242817
-0.5402663,-11.306262,1.1859858,1.048878,2.1744237,-1.070887
-1.2935998,-10.679776,0.93169284,0.9010726,2.1073122,-1.0570385
-1.8752924,-9.852432,2.5581725,0.77297467,2.1829457,-0.96356165
-1.8705453,-9.637232,2.5149868,0.75060415,2.2175667,-0.94971323
-2.0755816,-9.2403,1.9248416,0.76365364,2.1195626,-1.0290754
-2.976717,-8.465562,1.7713041,0.7727083,2.0764196,-1.0735501
-3.4392147,-8.078196,0.6725827,0.8438147,2.2308826,-1.0660933
-3.6013403,-7.7530003,-0.4549262,1.0046694,2.4404733,-1.0083027
-3.920804,-7.7960477,-1.4337004,1.0358284,2.569903,-0.8623616
-4.030484,-8.427329,-2.273336,0.9293021,2.51371,-0.64797735
-4.86487,-8.609065,-1.9710737,0.864321,2.2545848,-0.45356682
-6.3095355,-8.030404,-0.20065731,0.869381,1.9477888,-0.39417833
-6.404912,-8.546907,0.57659596,0.9743095,1.8937267,-0.49990574
-5.6754594,-8.982109,0.9364328,1.1854979,1.9722898,-0.60882896
-4.85065,-9.139934,1.416217,1.4566075,1.9757519,-0.67780477
-4.2546954,-9.312106,1.7520643,1.5436928,1.9129015,-0.7310679
-4.0401654,-9.331242,1.9583688,1.4004148,1.8412626,-0.75477004
-3.8160992,-9.240383,2.2366416,1.2430222,1.6673582,-0.7190837
-3.420392,-8.896058,2.750011,1.0107948,1.4396582,-0.57154465
-3.4728584,-8.886499,2.9659111,0.7460767,1.309696,-0.4668826
-3.3632202,-8.929547,2.6684372,0.6081251,1.339257,-0.3747373
-3.4633646,-8.896077,2.0303133,0.5713736,1.478274,-0.34650782
-3.7828279,-9.068249,1.1906775,0.5292956,1.6844025,-0.32094148
-3.8639011,-9.17825,0.6725006,0.4486019,1.8332729,-0.32839832
-3.725656,-9.192604,0.63891053,0.3748324,2.0559132,-0.19337615
-3.6017137,-9.498683,0.6580972,0.27709448,2.1813478,-0.13585192
-4.273995,-10.082139,0.6293051,0.20332497,2.16963,-0.071137175
-5.7472663,-10.436041,1.3058028,0.16204602,1.951251,-0.046636112
-6.8486495,-10.684731,2.1166415,0.106918626,1.5206182,-0.042375054
-7.201488,-11.119933,2.8363197,0.17536181,1.0516359,-0.09297507
-7.4303627,-11.58383,2.9418685,0.53675246,0.89371055,-0.17313614
-5.6806,-11.961644,1.1810383,0.9138558,1.0700116,-0.17553298
-2.9391341,-11.153429,0.039135784,0.9231768,1.6034424,-0.10735613
-2.071415,-10.144354,-0.1527846,0.71651566,2.1360743,0.017546017
-1.5279063,-9.914806,0.25023323,0.49281034,2.1019857,0.10037026
-0.3836544,-9.379186,1.0658697,0.28215447,1.8322077,0.11421868
0.074033916,-8.972691,0.7492041,0.16764054,1.7531104,0.09318148
-0.025574863,-8.336477,0.18797097,0.08956058,1.7013241,0.10468438
0.35107172,-8.164314,-0.21985191,0.075712234,1.6150377,0.16220868
0.55607736,-8.867326,0.34629676,0.08556599,1.6177007,0.19896035
-1.0888245,-9.087319,2.5917068,0.0911587,1.7247597,0.17951934
-2.352302,-9.336005,3.992688,0.09035983,1.9364808,0.17605731
-2.5239525,-9.125584,1.7424756,0.02431357,2.0275607,0.2604795
-3.6587,-8.236065,0.11598885,-0.020161107,1.7652396,0.31347644
-4.9269447,-7.4326286,0.47582832,-0.031878926,1.1465877,0.24077229
-5.875747,-7.4374137,2.764419,0.13962859,0.82141584,0.13983864
-5.842383,-7.7243595,2.687651,0.2778466,1.0198212,0.048226044
-2.862516,-6.681805,1.8624114,0.3271151,1.3553791,-0.025010753
-2.2093368,-6.227482,0.74929875,0.32125622,1.398256,-0.021814894
-2.5955386,-7.246131,1.2770643,0.27997732,1.2613696,0.010942032
-2.581245,-8.030444,2.6156733,0.306609,1.2238189,0.04796001
-3.0628033,-8.671286,3.6999938,0.3252512,1.2693588,0.06234114
-3.506219,-9.460381,4.9570384,0.32125652,1.2536461,0.04103594
-3.4966931,-9.909927,7.264821,0.32684925,1.2123672,0.022393897
-4.2976937,-10.928576,6.7130613,0.34336087,1.1854692,0.032247655
-4.7268057,-11.048139,5.585555,0.36493257,1.1793438,0.068733
-1.1366603,-12.45416,5.052987,0.3375021,1.1569732,0.12172994
-0.044843435,-12.655024,0.9315979,0.28130952,1.0991826,0.15741634
0.14585876,-12.870234,-1.9039571,0.2600043,1.0584362,0.14463323
-0.7504979,-12.903713,-0.6517103,0.24003074,1.0509794,0.1294533
-3.1487126,-9.584746,0.86442053,0.196355,1.0768119,0.11294179
-2.867422,-7.681364,1.8431876,0.18570243,1.2214214,0.09882711
-1.0604346,-7.757885,1.1762787,0.14948356,1.3519161,0.101224035
-1.5419927,-7.3083444,-0.6996983,0.14761941,1.3625687,0.10202304
-2.257173,-7.6957197,-1.2274685,0.20780687,1.1886643,0.09643048
-1.2654798,-8.67611,-1.913569,0.28530487,0.8800041,0.0855116
-0.8888333,-8.700026,-2.2590191,0.42938182,0.66482085,0.07379377
-2.1809177,-8.446562,-1.1363155,0.6221946,0.5156838,0.100159116
-4.250154,-8.288748,1.9727147,0.77000004,0.25283003,0.078054965
-4.4599466,-8.728729,3.8582828,0.8935706,-0.23692496,-0.05723343
-2.981938,-9.020456,3.584801,0.9684055,-1.0385357,-0.26868817
-1.074827,-9.144801,3.440862,1.027794,-1.9610541,-0.47934398
-0.46455818,-9.206975,1.6656405,1.1167436,-2.719788,-0.5935934
-1.1320603,-9.450879,-0.45502892,1.1894479,-2.8811755,-0.55497754
-1.9664357,-10.0152025,-1.1507252,1.2107532,-2.640959,-0.42395005
-2.6768484,-9.847822,-0.47902298,1.2195418,-2.364523,-0.2015762
-3.740078,-10.082162,1.2722043,1.3907828,-2.021242,0.048228152
-4.965413,-10.761263,2.5004618,1.7993115,-1.7511976,0.122530356
-5.6615224,-11.27298,3.172164,1.9873307,-1.6667755,0.030118812
-5.957136,-11.516884,3.5272055,1.8618959,-1.3104448,-0.025008507
-5.661542,-11.373416,2.5676253,1.6035696,-0.5354658,-0.0729453
-4.955917,-11.708185,2.3469203,1.4645528,-0.088055134,0.019999016
-4.402862,-12.195991,2.0542467,1.2408473,-0.17700471,0.08684438
-2.772283,-11.622108,-0.4166688,0.83471596,-0.52188385,0.0996276
-1.3753268,-10.598683,-1.8992189,0.3723916,-0.62494814,0.09243715
-0.56957805,-10.311745,-1.0979737,8.122501E-5,-0.4893927,0.08125116
0.21709949,-9.986545,-1.3330727,-0.25505194,-0.24571157,0.09829303
0.68993664,-9.068075,-2.0429683,-0.45638674,-0.015348328,0.15714884
1.0141541,-8.484624,-0.7715259,-0.62842673,0.24963596,0.17925307
-0.3780372,-8.336369,1.1572273,-0.6886141,0.65203923,0.114272
-1.4174113,-8.393755,3.5561738,-0.6681078,0.9274098,0.007213022
-1.7511506,-8.776341,4.20389,-0.44386986,0.91356146,-0.08280174
-2.9621658,-7.977683,2.0736291,-0.16423815,0.314617,-0.09318805
-4.2160907,-7.3320603,1.5698522,-0.1112413,-0.48859167,0.21493943
-5.1887155,-7.2459755,1.1620332,-0.14373182,-0.71469384,0.4756627
-5.4366345,-6.9781604,0.42315987,-0.13787286,-0.38526115,0.48045638
-3.3435621,-7.112065,1.6994,-0.3666382,0.06321481,0.21280894
-1.412595,-6.9781566,1.4547092,-0.61937195,0.770816,0.05488361
-1.3792136,-7.289008,0.931741,-0.89314467,1.2179605,0.11826679
-2.237411,-8.522859,1.2579991,-1.19781,1.0856014,0.09509732
-3.2481785,-9.6562805,2.4238877,-1.0508037,1.1409951,0.051687837
-3.9681091,-10.4166765,4.203906,-0.801532,0.78359926,-0.05430588
-3.5008583,-10.344938,6.9770875,-0.8193751,0.12766321,-0.18400171
-3.934721,-10.043647,7.811922,-1.0587932,-0.18179585,-0.13739641
-3.8202868,-9.7088785,5.6192884,-1.1349595,0.06774213,0.11746788
-1.4268432,-10.397538,3.36908,-0.93921727,0.39610958,0.20934686
-1.1360004,-11.736602,1.3779575,-0.78608567,0.63392967,0.0839121
-1.2218139,-12.434827,0.07773111,-0.79167825,0.66455597,0.080982625
-0.9166677,-12.630901,-0.2677153,-0.70725614,0.6344623,0.25435427
-1.3743696,-10.340141,-0.4836187,-0.57383186,0.63552755,0.442107
-1.8988211,-7.8580856,-1.6782916,-0.52696025,0.48319486,0.4844512
-1.4363374,-7.9059076,-2.0909083,-0.6385466,0.32447058,0.42373118
-1.0644419,-8.694997,-1.8270229,-0.72003925,0.51302224,0.32066697
-0.5971904,-9.278445,-1.0881463,-0.46144655,1.0368656,0.17738901
-0.76405644,-9.211491,-0.3636634,-0.082479045,1.3471235,0.02905107
-0.7497461,-9.622772,0.21208492,0.047483116,1.3122362,-0.069219485
-2.3707924,-9.488864,2.3135622,0.052543122,1.0914603,-0.0146247195
-4.6164203,-8.991493,4.808466,0.0070031113,0.7878602,0.1382406
-4.287435,-8.795414,4.4678173,-0.13201377,0.4863906,0.2855133
-2.8094091,-8.498905,3.1627936,-0.2681012,0.30396426,0.37046805
-1.75095,-8.642374,1.425959,-0.2800854,0.33752,0.3749954
-1.1835747,-9.130176,0.08255154,-0.04679267,0.51195693,0.3102807
-1.4314934,-9.316686,-0.301278,0.35161588,0.22912943,0.17179644
-2.122818,-9.613191,1.1380904,0.59050125,-0.3482434,0.0034847995
-2.8189101,-10.043602,2.3183727,0.6078118,-0.8145625,-0.08200259
-3.9822469,-9.967082,3.5274425,0.6634718,-1.2925994,-0.19784999
-4.473324,-10.196633,3.455476,0.85894763,-1.6766269,-0.39998373
-4.706939,-10.397491,2.481506,0.99956244,-2.0851557,-0.51263535
-5.279069,-9.900123,2.0305061,0.930853,-2.6068685,-0.54778904
-5.6604857,-9.134941,2.0257099,0.8842477,-2.8039424,-0.55631113
-5.8797984,-9.675346,1.5747097,1.0365803,-2.4252412,-0.4833406
-5.5746512,-10.947456,2.1024795,1.5095572,-1.7863492,-0.25137943
-5.1312394,-11.789152,2.2560132,2.1404595,-1.3168341,0.08657541
-3.7533374,-11.540467,0.9749783,2.1492481,-0.9919289,0.12678911
-2.0178502,-10.210963,-0.50277007,1.7934494,-0.8193557,-0.055637848
-0.721001,-9.273616,0.32246858,1.469341,-0.42653817,-0.2678934
1.0233418,-10.120303,1.699306,1.2160716,-0.11255215,-0.34592292
1.9482886,-10.12987,1.6273361,0.96573454,-0.08512157,-0.3895988
1.1282196,-9.072967,1.6993029,0.73004496,-0.19511,-0.44259566
-0.46423334,-8.264748,3.4265416,0.34335423,-0.27873313,-0.41596413
-0.9362526,-8.566039,5.691143,-0.11950278,-0.23532361,-0.3041115
-0.9887054,-9.426868,5.1489806,-0.4555935,0.11834392,-0.22208625
-3.3487744,-9.336005,2.7980132,-0.66837984,0.66109574,-0.16615996
-6.0950356,-8.465616,1.3394531,-0.88329685,1.2307454,-0.022615733
-9.585074,-8.499095,2.5629134,-1.0665221,1.7335498,0.122260064
-6.5289197,-8.173895,4.477269,-1.086496,2.1455405,0.12332528
-1.3224862,-5.8927035,2.5868998,-0.73655695,2.3727078,-0.024746384
-0.9887468,-5.6727166,1.0803607,-0.059315715,2.2528658,-0.14378963
-1.0364318,-6.567023,0.77329415,0.31512436,1.2334089,0.035440918
