Acceleration x,Acceleration y,Acceleration z,Rotation x, Rotation y, Rotation z
-4.1986694,-8.916077,1.9078827,0.06349182,-0.044830322,0.0019073486
-3.9404297,-8.868301,2.3982544,-0.0073547363,-0.04788208,-0.0032806396
-3.8342285,-8.858749,2.2882385,-0.070892334,-0.020080566,0.002822876
-3.8028412,-8.729813,2.501114,-0.12619019,0.008010864,0.008010864
-3.9428406,-8.586533,2.40065,-0.12678528,0.1020813,0.019622803
-3.995926,-8.682053,2.072937,-0.14541626,0.14118958,0.029403687
-3.925949,-8.708328,2.190155,-0.12922668,0.1533966,0.06390381
-3.923523,-8.739349,1.9868317,-0.067230225,0.16744995,0.06085205
-3.9066315,-8.753693,1.9437714,-0.05744934,0.13754272,0.03642273
-3.9380035,-8.498184,2.123169,-0.04248047,0.08805847,0.0012969971
-4.0249023,-8.820541,2.3575897,-0.06111145,0.07064819,0.01473999
-4.029724,-8.779953,2.4772034,-0.11517334,0.22091675,0.07948303
-4.065918,-8.734589,2.2882233,-0.15000916,0.3769989,0.08682251
-4.164871,-8.784729,1.460556,-0.15916443,0.42341614,0.06573486
-4.4255524,-8.596085,0.8721161,-0.034240723,0.1873169,0.042526245
-4.2348633,-8.259384,1.5084076,0.11907959,-0.06588745,-0.06498718
-3.6459656,-9.004425,1.5203705,0.2522583,-0.33528137,-0.21708679
-3.8342285,-9.331558,3.1756897,-0.020187378,-0.33833313,-0.08270264
-3.9838715,-8.194916,1.5466766,-0.016830444,-0.18835449,0.041305542
-4.4158936,-7.717346,2.9125671,0.6703949,-0.37590027,0.12133789
-3.9476624,-8.596085,3.4101257,0.8909149,0.2951355,0.3027649
-3.5832214,-8.199692,1.044342,0.35243225,0.27468872,0.0990448
-4.008011,-10.609085,3.8694,-0.57333374,-0.16392517,-0.42019653
-3.5132294,-9.637207,3.4292603,-0.78286743,0.43045044,-0.06285095
-5.3523407,-6.9914246,0.7333679,-0.46948242,0.7276459,-0.0087890625
-4.715164,-7.707794,1.338562,0.13986206,0.21115112,-0.24487305
-4.2734833,-7.9776306,2.5920258,0.12458801,0.043762207,-0.40463257
-3.7593994,-9.799591,2.3528137,-0.29386902,0.0978241,-0.44891357
-2.398178,-7.9059753,-2.7686615,0.11665344,-0.72714233,-0.013061523
-4.8889465,-6.989029,4.170807,0.9239197,-2.16391,0.39988708
-5.0651245,-8.567444,4.0775146,0.0809021,-0.77388,0.17538452
-4.25177,-9.033066,2.7833862,-0.030883789,-0.41957092,0.10331726
-3.0377502,-5.89299,1.4677429,-0.13471985,-0.5252533,0.074905396
-2.2316437,-4.5104065,0.85775757,-0.22636414,-1.1480408,0.24320984
-2.9388123,-5.86911,2.27388,-0.47712708,-1.5945892,0.36506653
-3.2791138,-6.6045837,3.4531708,-0.75445557,-1.1614838,0.20562744
-2.6371155,-6.716812,2.824051,-0.82470703,-0.5851288,0.020843506
-2.774704,-7.9728394,2.2834473,-0.5012512,-0.4415741,-0.11109924
-3.3901367,-9.828232,1.8145905,-0.33355713,-0.30625916,-0.4079895
-3.778717,-10.955338,2.673355,-0.41267395,-0.43363953,-0.76353455
-3.5446014,-9.644363,2.9149628,-0.2788849,-0.2809143,-0.9177704
-2.697464,-8.462372,1.8121948,-0.37419128,0.20501709,-0.73939514
-2.4681702,-8.822937,1.4294739,-0.480484,0.29237366,-0.5903473
-2.6081696,-7.932251,1.5012207,-0.551651,0.16134644,-0.29896545
-2.3282013,-8.225967,1.3912048,-0.75842285,0.10147095,0.14300537
-2.7216034,-8.808609,2.266693,-0.87968445,0.090789795,0.5229645
-2.8302002,-9.095154,1.216568,-0.8863983,0.45669556,0.60450745
-3.522873,-9.909424,0.51568604,-0.778595,0.41577148,0.3293152
-4.2035065,-10.119568,-0.17324829,-0.5678406,0.07460022,-0.0042266846
-3.9790497,-10.152985,0.3865204,-0.35159302,-0.49258423,-0.37654114
-4.857559,-11.5833435,1.2667999,-0.34913635,-0.6291199,-0.6602936
-5.0651245,-12.156433,1.6064758,-0.3479309,-0.61994934,-0.70487976
-4.109375,-12.399994,1.4151154,-0.2746277,-0.5539856,-0.75283813
-2.728836,-10.63295,0.41999817,-0.12556458,-0.6312561,-0.6526489
-2.446457,-10.890839,0.98931885,0.040893555,-0.91348267,-0.17648315
-3.6677094,-11.841232,2.1136017,0.17527771,-0.8197174,0.17140198
-3.419098,-10.449097,2.1518707,-0.016525269,-0.20150757,0.31648254
-2.0940857,-8.682053,2.1255646,-0.2819519,0.17753601,0.37483215
-1.6113739,-8.331039,1.5969238,-0.28347778,0.3995819,0.5788574
-2.1254578,-9.689743,0.7333679,-0.11457825,0.39012146,0.77708435
-2.7602081,-9.775696,1.3481293,-0.07546997,0.5593262,1.0034332
-3.7956085,-9.524963,1.2357178,-0.12678528,1.0791779,1.110321
-4.6620636,-9.36499,0.31713867,-0.3112793,1.2676239,1.0669556
-6.6508026,-7.746002,-0.48661804,-0.3631897,0.66348267,0.5217438
-5.8712463,-9.016357,0.683136,-0.24926758,0.020843506,-0.32919312
-5.2799377,-9.704071,0.38412476,-0.19734192,-0.0038909912,-0.5112152
-5.0602875,-10.002563,0.80513,-0.38671875,-0.04512024,-0.5313721
-3.8028412,-9.176346,0.58984375,-0.4025879,-0.010620117,-0.4250946
-2.9026031,-7.476166,1.45578,-0.46826172,0.037643433,-0.3603363
-3.028122,-8.26178,-0.8478241,-0.7245178,0.4472351,-0.5695648
-2.4319763,-8.569809,-0.017745972,-0.3460846,-0.10469055,-0.32154846
-3.0643158,-9.14769,0.41999817,-0.3998413,-0.07688904,-0.317276
-2.9726105,-9.419907,0.063583374,-0.44230652,-0.017333984,-0.3554535
-2.793991,-8.928009,0.31474304,-0.4303894,-0.029541016,-0.4180603
-2.80365,-8.901749,-0.1277771,-0.41879272,0.13171387,-0.49320984
-3.1753387,-9.720795,-0.6947174,-0.259964,0.09994507,-0.48220825
-3.2887878,-9.670624,-0.71624756,-0.15274048,-0.11048889,-0.47946167
-3.2597961,-9.271851,-0.2808838,-0.17749023,-0.22105408,-0.3630829
-3.1825867,-9.419907,0.032485962,-0.2770691,-0.21678162,-0.28489685
-3.641159,-9.472443,0.008560181,-0.34700012,-0.22135925,-0.26504517
-3.5832214,-9.455734,-0.13735962,-0.37052917,-0.24243164,-0.1529541
-3.3225555,-9.873611,-0.36460876,-0.29631042,-0.26016235,-0.06803894
-2.8470917,-9.899872,-0.18521118,-0.1900177,-0.29711914,0.041305542
-2.5743713,-9.687347,-0.26174927,-0.09715271,-0.22442627,0.059936523
-2.4561005,-9.625275,-0.6205597,-0.055923462,-0.15019226,0.037643433
-2.3643951,-9.684967,-0.69711304,-0.040039062,-0.15049744,0.0284729
-2.2847443,-9.439011,-0.6564331,-0.016220093,-0.14927673,0.026031494
-2.2099152,-9.689743,-0.80474854,-0.005844116,-0.11659241,-0.00541687
-2.289566,-9.033081,-0.8717346,-0.0040130615,-0.078125,-0.038101196
-2.1616669,-9.097549,-0.95783997,-0.036376953,-0.050933838,-0.018249512
-2.253357,-9.434235,-0.83106995,-0.07272339,-0.06436157,-0.044525146
-2.253357,-9.527359,-0.89086914,-0.12007141,-0.04512024,-0.078430176
-2.366806,-9.680176,-0.869339,-0.15060425,-0.025878906,-0.10835266
-2.4585266,-9.601395,-0.77127075,-0.14205933,-0.018234253,-0.11843872
-2.5671387,-9.460495,-0.6899414,-0.10479736,-0.03656006,-0.11109924
-2.7167664,-9.448563,-0.6229553,-0.09562683,-0.04815674,-0.095840454
-2.7602081,-9.470062,-0.69233704,-0.10662842,-0.0493927,-0.07444763
-2.7191772,-9.362595,-0.7497406,-0.10661316,-0.06098938,-0.059783936
-2.8470917,-9.434235,-0.76168823,-0.1105957,-0.042663574,-0.059783936
-2.8881226,-9.60379,-0.7090759,-0.10479736,-0.039611816,-0.053985596
-2.7867584,-9.572739,-0.5846863,-0.07640076,-0.0652771,-0.03779602
-2.695053,-9.479599,-0.5177002,-0.051651,-0.09642029,-0.022827148
-2.692627,-9.43663,-0.54164124,-0.04522705,-0.117492676,-0.021606445
-2.6998596,-9.422287,-0.7353821,-0.048599243,-0.12879944,-0.023132324
-2.658844,-9.376923,-0.8573761,-0.05683899,-0.14041138,-0.020690918
-2.6009216,-9.400803,-0.87890625,-0.069366455,-0.14712524,-0.018249512
-2.5936737,-9.474838,-0.8215027,-0.078826904,-0.1489563,-0.017944336
-2.5261078,-9.546463,-0.7928009,-0.08067322,-0.15568542,-0.015197754
-2.398178,-9.570343,-0.75691223,-0.07180786,-0.15690613,-0.014587402
-2.291977,-9.556015,-0.7497406,-0.059280396,-0.13430786,-0.014892578
-2.26062,-9.524979,-0.8238983,-0.04890442,-0.10345459,-0.01977539
-2.294403,-9.548859,-0.89805603,-0.04156494,-0.08024597,-0.020690918
-2.296814,-9.630035,-0.84780884,-0.033615112,-0.057632446,-0.018859863
-2.304062,-9.620483,-0.785614,-0.021087646,-0.030761719,-0.019470215
-2.446457,-9.551254,-0.785614,-0.0055236816,-0.018844604,-0.01977539
-2.5309143,-9.493927,-0.80952454,0.0015106201,-0.013641357,-0.013671875
-2.5285187,-9.474838,-0.84303284,0.0024261475,-0.0105896,-0.010009766
-2.5260925,-9.582275,-0.8215027,0.0076141357,-0.007843018,-0.007247925
-2.5357513,-9.594223,-0.8023529,0.013427734,-0.008453369,-0.004501343
-2.4898834,-9.584671,-0.7114563,0.021362305,-0.0118255615,3.8146973E-4
-2.4826508,-9.493927,-0.71624756,0.02746582,-0.009063721,0.005569458
-2.5140228,-9.417526,-0.74256897,0.02960205,-0.010910034,0.009231567
-2.550232,-9.415131,-0.70906067,0.029296875,-0.017318726,0.01625061
-2.5405731,-9.455734,-0.70906067,0.030212402,-0.025863647,0.022064209
-2.4536896,-9.498718,-0.69711304,0.025939941,-0.029541016,0.031845093
-2.3185425,-9.548859,-0.6301422,0.014343262,-0.033813477,0.041610718
-2.120636,-9.544083,-0.57032776,0.0048675537,-0.027389526,0.053833008
-2.0892487,-9.527359,-0.57751465,0.004562378,-0.02281189,0.056884766
-2.3282013,-9.474838,-0.66841125,0.014022827,-0.02494812,0.03215027
-2.5333405,-9.417526,-0.79519653,0.013122559,-0.039916992,0.0025177002
-2.6154022,-9.343491,-0.85498047,-0.0021514893,-0.06037903,-0.020080566
-2.5767822,-9.434235,-0.83825684,-0.026901245,-0.07107544,-0.027709961
-2.4343872,-9.544083,-0.69950867,-0.051330566,-0.0664978,-0.0234375
-2.4705963,-9.489166,-0.57751465,-0.05895996,-0.04359436,-0.019165039
-2.4730072,-9.474838,-0.6014404,-0.051940918,-0.026473999,-0.01121521
-2.3137054,-9.589447,-0.65882874,-0.034835815,-0.027694702,-0.00541687
-2.2702637,-9.665863,-0.76168823,-0.021697998,-0.016403198,-0.009689331
-2.3836975,-9.546463,-0.780838,-0.007949829,0.0061950684,-0.013977051
-2.4923096,-9.391251,-0.6875458,-0.0030670166,0.024215698,-0.008163452
-2.5960846,-9.415131,-0.6205597,-3.2043457E-4,0.034301758,-0.0060272217
-2.6395416,-9.491547,-0.67318726,-3.2043457E-4,0.047424316,-0.0020599365
-2.617813,-9.462906,-0.7306061,-9.3078613E-4,0.051712036,0.002822876
-2.6443634,-9.539307,-0.69711304,0.0036468506,0.047424316,0.006790161
-2.6419525,-9.546463,-0.59664917,0.008239746,0.04559326,0.010467529
-2.6491852,-9.491547,-0.58229065,0.013412476,0.053237915,0.012908936
-2.6829834,-9.505875,-0.63731384,0.012191772,0.056289673,0.015960693
-2.6685028,-9.48439,-0.61338806,0.017990112,0.04988098,0.019012451
-2.6467743,-9.522598,-0.5631561,0.035705566,0.03704834,0.020233154
-2.6322784,-9.481995,-0.5607605,0.035705566,0.03857422,0.02420044
-2.6636658,-9.431854,-0.6014404,0.028366089,0.044677734,0.027252197
-2.6371155,-9.424698,-0.59664917,0.032043457,0.038269043,0.0284729
-2.593689,-9.441391,-0.5727234,0.036010742,0.03186035,0.028778076
-2.5767822,-9.458115,-0.5918579,0.02897644,0.034301758,0.027862549
-2.5912628,-9.410355,-0.63731384,0.019515991,0.035217285,0.02420044
-2.588852,-9.381714,-0.63731384,0.015533447,0.025741577,0.019012451
-2.5695343,-9.403198,-0.6421051,0.009429932,0.019943237,0.01260376
-2.5623016,-9.470062,-0.6755829,-6.4086914E-4,0.023910522,0.006790161
-2.5357513,-9.46051,-0.6827698,-0.008285522,0.022079468,0.0012969971
-2.4681702,-9.696899,-0.6349182,-0.012252808,0.012008667,-5.340576E-4
-2.439209,-9.541702,-0.6205597,-0.00920105,0.013534546,-0.001449585
-2.552658,-9.357834,-0.6205597,-0.012863159,0.017196655,0.004348755
-2.651596,-9.343506,-0.66841125,-0.010726929,-0.007537842,9.918213E-4
-2.6805725,-9.319626,-0.6707916,-0.016525269,-0.010604858,-2.2888184E-4
-2.7240143,-9.329178,-0.6564331,-0.0415802,0.012313843,0.009536743
-2.7167664,-9.367386,-0.62535095,-0.044921875,-0.0435791,0.0064849854
-2.695053,-9.393646,-0.65882874,-0.028747559,-0.02130127,-5.493164E-4
-2.7046967,-9.403198,-0.6803589,-0.030273438,-0.02709961,6.713867E-4
-2.7215881,-9.458115,-0.7234192,-0.021102905,-0.038406372,-0.0020751953
-2.7022858,-9.496323,-0.7449646,-0.0256958,-0.040542603,0.0028076172
-2.6443481,-9.560791,-0.7186432,-0.033935547,-0.017944336,0.013809204
-2.6347046,-9.548859,-0.68515015,-0.041870117,-0.024047852,0.021438599
-2.6347046,-9.446182,-0.65405273,-0.031799316,-0.02557373,0.018692017
-2.6395416,-9.453339,-0.61576843,-0.017440796,-0.030166626,0.00982666
-2.6781464,-9.520203,-0.6899414,-0.011947632,-0.056121826,0.0012817383
-2.6540222,-9.544083,-0.7928009,-0.015914917,-0.041152954,-0.004211426
-2.6395416,-9.431854,-0.8238983,-0.030883789,-0.03779602,0.008911133
-2.695053,-9.403198,-0.72821045,-0.032714844,-0.04145813,0.018081665
-2.695053,-9.36499,-0.6516571,-0.024475098,-0.025268555,0.019607544
-2.6395416,-9.360214,-0.6660156,-0.016220093,-0.017333984,0.020828247
-2.6491852,-9.374542,-0.70428467,-0.012557983,-0.048187256,0.018997192
-2.6685028,-9.386475,-0.7712555,-0.014083862,-0.030166626,0.015014648
-2.6057434,-9.376923,-0.7736664,-0.01713562,-0.05734253,0.0049438477
-2.6250458,-9.369766,-0.77127075,-0.02293396,-0.030776978,0.007385254
-2.7022858,-9.362595,-0.77604675,-0.025680542,-0.028625488,0.008911133
-2.6781464,-9.560791,-0.747345,-0.01499939,-0.019470215,9.765625E-4
-2.6805725,-9.462891,-0.7258148,-0.02720642,-0.004501343,0.0049438477
-2.6829681,-9.489151,-0.69711304,-0.023849487,-0.013061523,0.0012817383
-2.6660767,-9.415131,-0.6875458,-0.023544312,-0.022216797,0.0040283203
-2.6636658,-9.424683,-0.7138519,-0.027832031,-0.028015137,0.008911133
-2.697464,-9.453339,-0.7306061,-0.03149414,-0.029846191,0.008926392
-2.7360687,-9.496323,-0.75691223,-0.03149414,-0.028930664,0.0079956055
-2.7336578,-9.434235,-0.72102356,-0.03149414,-0.032913208,0.012893677
-2.7046967,-9.376923,-0.66841125,-0.029663086,-0.031082153,0.015625
-2.6733246,-9.41037,-0.6755829,-0.023239136,-0.023132324,0.014724731
-2.6540222,-9.422287,-0.7114563,-0.017440796,-0.026794434,0.01411438
-2.6878052,-9.443787,-0.7497406,-0.01713562,-0.032302856,0.012588501
-2.6709137,-9.38887,-0.75930786,-0.02444458,-0.033813477,0.013198853
-2.6685028,-9.405579,-0.7664795,-0.03147888,-0.02923584,0.013198853
-2.7216034,-9.474838,-0.76168823,-0.035446167,-0.020370483,0.011688232
-2.7191772,-9.424698,-0.75930786,-0.03605652,-0.014862061,0.012908936
-2.627472,-9.362595,-0.75930786,-0.031173706,-0.009384155,0.015350342
-2.588852,-9.467667,-0.70906067,-0.023529053,-0.0020446777,0.010467529
-2.6685028,-9.479599,-0.71624756,-0.017120361,0.0010070801,0.0031280518
-2.7191772,-9.391251,-0.76408386,-0.02230835,0.014755249,0.004043579
-2.7505646,-9.384079,-0.7928009,-0.028411865,0.023910522,0.009857178
-2.7867584,-9.417526,-0.80474854,-0.029342651,0.02696228,0.013824463
-2.8229675,-9.458115,-0.75930786,-0.028121948,0.016281128,0.019622803
-2.8157349,-9.393646,-0.7330017,-0.029632568,0.0052948,0.026031494
-2.7457275,-9.36499,-0.7210388,-0.032699585,-0.0023498535,0.031234741
-2.7143555,-9.419907,-0.7306061,-0.03666687,-0.010604858,0.030303955
-2.6708984,-9.41037,-0.7377777,-0.036972046,-0.0093688965,0.026641846
-2.6467743,-9.362595,-0.7545166,-0.038497925,-0.0032653809,0.023590088
-2.6998596,-9.398407,-0.7664795,-0.042160034,-8.239746E-4,0.02267456
-2.728836,-9.429459,-0.7688751,-0.047058105,-0.006011963,0.022979736
-2.6829834,-9.324387,-0.7664795,-0.053771973,-0.010299683,0.021453857
-2.6805725,-9.36499,-0.79519653,-0.05682373,-0.014572144,0.013824463
-2.695053,-9.527374,-0.8286743,-0.05682373,-0.015487671,0.006790161
-2.6709137,-9.486771,-0.78323364,-0.057144165,-0.022827148,0.009552002
-2.695053,-9.374542,-0.74494934,-0.059280396,-0.017333984,0.013824463
-2.6805725,-9.295731,-0.7856293,-0.057144165,-0.0035858154,0.019927979
-2.6467743,-9.384079,-0.84542847,-0.057144165,0.011062622,0.020233154
-2.5454102,-9.369766,-0.8932648,-0.065093994,0.01473999,0.016860962
-2.5164337,-9.29097,-0.8358612,-0.067840576,-0.0115356445,0.012298584
-2.620224,-9.465271,-0.91000366,-0.067840576,-0.012451172,0.0049591064
-2.5792084,-9.565567,-1.0032959,-0.07485962,0.0104522705,0.008636475
-2.5792084,-9.343506,-0.95306396,-0.08004761,0.026031494,0.023895264
-2.7167664,-9.259918,-0.96980286,-0.070892334,0.019927979,0.03855896
-2.8157196,-9.520203,-1.0224304,-0.062332153,0.026947021,0.043136597
-2.588852,-9.524963,-1.108551,-0.037902832,0.06971741,0.056884766
-2.5309143,-9.271851,-1.1276855,-0.052261353,0.026641846,0.016571045
-2.7095337,-9.551254,-1.1276855,-0.031799316,0.008926392,0.03062439
-2.873642,-9.450943,-1.0894165,-0.00491333,-0.006942749,0.056274414
-2.866394,-9.474838,-1.1037598,0.008224487,0.024505615,0.083465576
-2.6974487,-9.479599,-0.9745941,0.0231781,0.050476074,0.10392761
-2.7626343,-9.085617,-0.93392944,0.054641724,0.08100891,0.10057068
-2.8808746,-8.939941,-1.1803131,0.0809021,0.13049316,0.07948303
-3.194641,-8.959045,-1.4075623,0.10014343,0.114608765,0.05078125
-3.4263458,-9.243195,-1.5175934,0.08580017,0.1237793,-0.014282227
-3.4480743,-9.372162,-1.5080261,0.037231445,0.124694824,-0.013061523
-3.6459656,-9.047409,-1.8333588,-0.030578613,0.17356873,-0.030776978
-3.4480743,-9.025909,-1.6276398,-0.10571289,0.11338806,-0.06681824
-3.3756561,-8.925613,-0.95306396,-0.12924194,-0.016113281,-0.049102783
-3.1849823,-9.166794,-1.0224304,-0.16069031,0.12591553,-0.08514404
-2.736084,-9.739883,-1.0080719,-0.13961792,0.30734253,-0.08972168
-2.627472,-10.000168,-0.3598175,-0.016235352,0.27986145,-0.0552063
-3.0715485,-9.620483,-0.12060547,0.08609009,0.29389954,-0.012451172
-3.551834,-9.319611,-0.41723633,0.14474487,0.38552856,0.025115967
-3.7256165,-8.985321,-1.158783,0.15940857,0.43714905,0.031234741
-3.8656006,-8.789505,-1.4410553,0.121536255,0.3745575,0.020233154
-4.034546,-8.856369,-1.2353363,0.07998657,0.24475098,0.015029907
-4.1552277,-8.882629,-1.0966034,0.020431519,0.1821289,0.015960693
-4.222809,-8.715485,-1.02005,-0.02935791,0.12745667,0.006790161
-4.1359253,-8.557877,-1.0296173,-0.06539917,0.07644653,-0.0063323975
-3.9162903,-8.713089,-1.0080719,-0.09869385,0.012008667,-0.05734253
-3.674942,-9.018753,-0.8645477,-0.13136292,-0.057632446,-0.12484741
-3.2694702,-9.016357,-0.84303284,-0.1658783,-0.0664978,-0.17860413
-3.0039673,-9.159637,-0.59425354,-0.20437622,-0.05305481,-0.21800232
-3.0691376,-9.345871,-0.20433044,-0.22573853,-0.0741272,-0.23327637
-3.267044,-9.22171,-0.053619385,-0.21444702,-0.055496216,-0.23693848
-3.4987488,-9.157242,0.025314331,-0.18513489,0.0031280518,-0.24702454
-3.9790497,-9.26709,0.010955811,-0.13809204,0.04437256,-0.26138306
-4.4882965,-9.441391,0.23342896,-0.062332153,0.05079651,-0.25434875
-4.8455048,-9.658691,0.56591797,0.0039367676,0.054763794,-0.21281433
-5.229248,-9.98584,0.6400757,0.09251404,0.09385681,-0.13432312
-5.2823486,-10.071793,0.2884369,0.21835327,0.14395142,-0.016723633
-5.3112946,-10.401337,-0.039276123,0.38726807,0.07461548,0.12132263
-5.381302,-11.158295,-0.11103821,0.5729675,-0.12879944,0.30825806
-5.0820312,-11.246643,0.2501526,0.7342377,-0.3413849,0.5495453
-4.8455048,-10.881302,0.6855316,0.88816833,-0.61383057,0.8049011
-4.8406677,-10.8502655,1.1232758,1.0943451,-0.9840393,1.0245056
-5.1858063,-11.435303,0.45587158,1.4040527,-1.295578,1.2535858
-5.6202393,-11.499756,-0.089523315,1.7681274,-1.7485352,1.5220642
-5.6829834,-11.08667,0.6974945,2.2158966,-2.1181183,1.7703705
-4.3459015,-9.964355,0.8768921,2.4831543,-2.3664398,1.9227905
-3.0015564,-7.956131,0.5611267,2.1865845,-2.1410217,1.7874756
-4.3820953,-7.8247986,-2.5605469,1.5631866,-1.1966248,1.442337
-5.66127,-10.75235,-3.3379822,0.67466736,-1.0713959,1.357132
-4.7706757,-10.441925,-1.1946716,0.1627655,-1.2619781,1.4047699
-2.9532928,-8.684448,0.72857666,0.25959778,-1.8154297,1.1369019
-1.0104065,-8.50058,3.1446075,0.38572693,-2.0023499,0.81954956
-0.64837646,-7.1012573,2.6326904,0.44163513,-1.3753052,0.62467957
-1.5920715,-6.8959045,1.9605103,0.22445679,-0.8264313,0.5309143
-2.9412231,-6.8767853,1.1328583,-0.013168335,-0.61109924,0.45394897
-4.2300415,-6.7812805,1.4820862,-0.17382812,-0.66882324,0.38156128
-4.6620636,-6.3729553,1.867218,-0.27676392,-0.55947876,0.33512878
-3.785965,-5.959854,1.8600311,-0.3265381,-0.36369324,0.19004822
-3.1391296,-5.9001617,2.0681458,-0.38336182,-0.37042236,0.020233154
-3.1898193,-6.2249146,3.1924438,-0.45054626,-0.26167297,-0.07017517
-4.2397003,-7.0630646,3.613449,-0.5715027,0.20013428,-0.04788208
-5.489914,-7.703018,2.9580078,-0.7208557,0.58192444,0.027267456
-5.953293,-8.264175,1.7093353,-0.80148315,0.47624207,-0.013671875
-5.547821,-8.665329,1.9700775,-0.9252014,-0.12301636,-0.10194397
-5.255783,-7.7531586,2.517868,-0.9929962,-0.46540833,-0.110183716
-5.3112946,-6.745468,4.2401886,-1.1136475,-0.27053833,-0.038711548
-5.5043945,-6.4684753,4.481781,-1.1588593,0.35865784,-0.011230469
-5.6757355,-6.747864,2.7762146,-1.1023407,0.7196808,-0.01184082
-5.4633636,-8.584137,2.3384705,-0.98628235,0.44387817,-0.037490845
-5.2364807,-9.142914,1.8145905,-0.71414185,0.081329346,-0.028335571
-5.3885345,-8.314316,2.4748077,-0.59806824,-0.3875122,6.866455E-4
-5.42717,-7.1156006,3.3790283,-0.5934906,-0.55093384,0.009246826
-4.9565125,-5.9335785,3.436432,-0.58891296,-0.50816345,-0.05154419
-4.391754,-5.29364,2.6087646,-0.58403015,-0.30046082,-0.15539551
-3.92836,-5.9049225,0.9701843,-0.6325836,0.087753296,-0.26350403
-3.592865,-7.8486786,-0.7186432,-0.8833618,0.4481659,-0.53474426
-3.1101685,-12.115845,-1.3166504,-1.3851776,0.9417572,-0.946167
-3.2791138,-15.735886,-0.31437683,-1.775528,1.3638611,-1.1312561
-5.5598907,-12.686539,2.7953491,-1.5733337,0.86691284,-0.6825714
-7.403839,-9.644363,5.893112,-0.7904968,0.013839722,-0.20793152
-5.854355,-7.146637,5.3692474,-0.0675354,-0.049697876,0.108810425
-3.3201447,-5.1670685,0.56352234,-0.067840576,0.9692383,-0.17372131
-2.3161316,-5.8189697,-2.1491241,-0.10571289,1.1360016,-0.72991943
-2.8615723,-8.1185,-1.5008545,-0.105407715,0.4124298,-1.0347443
-4.145569,-8.930389,1.5753784,-0.25506592,-0.27082825,-1.0158081
-4.799637,-7.8009186,2.9436646,-0.5027771,0.16044617,-0.7745056
-4.9879,-7.213501,1.5873566,-0.46887207,0.8757782,-0.52282715
-5.1447754,-7.3257294,0.46066284,-0.1264801,0.5904999,-0.322464
-5.130295,-6.6738434,0.22624207,0.021347046,-0.028015137,-0.18655396
-5.205124,-5.4058533,0.34346008,-0.1328888,-0.20301819,-0.09246826
-4.5631104,-5.097824,0.6735687,-0.25109863,-0.21585083,0.017486572
-4.249344,-5.016632,1.2046051,-0.17962646,-0.3991089,0.18823242
-4.6741333,-4.350403,1.5753784,-0.12892151,-0.47943115,0.35621643
-4.7513733,-3.273468,0.3458557,-0.24438477,-0.51672363,0.42277527
-3.778717,-2.2156372,0.20710754,-0.39160156,-0.8322296,0.38093567
-3.4022064,-1.5565796,2.2954102,-0.23918152,-1.258316,0.3488617
-4.8406677,-2.5284576,3.508194,-0.259964,-1.6712646,0.28349304
-7.758621,-4.50325,3.8263397,-0.008895874,-1.9067535,0.5364075
-6.1946564,-4.9760437,-0.25216675,-0.12678528,-1.5475616,0.77342224
-0.77871704,-5.3724365,5.1252594,0.11114502,-2.292511,0.4343872
-0.29599,-3.0203552,10.643814,0.37535095,-3.1721802,0.0079956055
-7.5220947,-0.11428833,0.6520233,-0.40931702,-0.556427,0.07092285
-6.3418884,-1.974472,-8.78717,-1.3757172,-0.6422577,0.41667175
-3.0787811,-8.875473,0.6113739,-0.9523773,-2.8969727,0.29937744
-2.736084,-12.02034,-4.1823883,-0.7993622,-3.1660614,0.8769531
-2.1375122,-11.13681,-4.0221252,-0.8399811,-3.539917,1.1506348
-2.8760529,-11.898544,-1.319046,-0.19734192,-3.770523,1.1301575
-1.4569092,-13.787369,-3.3188324,0.1468811,-3.5750427,0.918808
0.9807739,-11.846008,-5.2540436,0.100753784,-3.0011292,1.0568695
3.1481018,-1.7858124,-9.203384,-0.24987793,-2.037796,1.3302307
7.5479584,4.363022,-8.380524,-1.1985626,-0.20549011,0.88734436
-14.3789215,-17.142365,5.034363,-0.9001465,1.1619568,0.923996
-44.936554,-63.81613,-32.7679,-1.982605,3.8241272,4.763321
-36.228546,-32.68039,-4.1991425,-3.2529144,-2.927826,7.8778534
33.867447,9.819366,21.243164,-2.902588,-2.8984985,1.1894226
16.646957,-11.132034,3.4770966,-2.2914124,1.7413635,-0.36036682
-4.0779877,-7.027237,-1.3716736,-3.4697723,1.538559,2.3302155
-21.843948,-2.7696228,-5.69899,-4.0888977,-1.6895905,3.2950897
-5.690216,6.490631,18.58078,-4.0824738,0.91241455,3.4749908
8.110306,9.346558,11.593475,-3.7321472,3.849472,3.2165985
0.40151978,9.855179,-1.192276,-3.9511414,3.6845398,3.127411
-10.333862,6.8607483,-1.9864502,-4.3616486,2.493042,3.2285156
-13.015274,8.938217,-3.4384613,-4.511307,1.2624359,3.3009033
-14.9557495,5.9032135,-5.964493,-4.9071503,0.69158936,2.957901
-20.9413,0.1794281,-7.8423004,-5.0274963,-0.25038147,2.807312
-31.449783,18.81694,33.892548,-2.670761,-0.23878479,2.3265686
34.48532,-5.384369,-83.70033,-1.3231812,18.620316,-1.8047485
-4.8841095,-6.6666718,-58.643158,-0.40657043,7.8867188,2.0956573
-14.354782,-17.813354,-29.234787,-1.5812683,-1.3511658,1.7550964
-28.876968,-14.291214,-15.6883545,-3.3286743,-5.023117,1.752655
-19.618683,-7.574066,-19.23822,-4.5076447,-7.692917,3.3876495
-13.681412,-11.098587,15.22467,-5.954483,-10.187714,0.54740906
-6.834244,-0.5273895,-4.4263763,-2.2886658,-2.414383,0.869339
10.11113,3.847229,-15.245819,-1.485672,-2.5567322,-0.021606445
7.9413605,-1.1864471,-0.5248871,-2.1747284,-5.1174927,-0.4180603
2.9212341,-4.00177,13.220093,-1.4954376,-6.072281,0.30673218
-0.67733765,3.4580078,11.079163,-0.8347931,-2.7980194,1.2639618
-12.464996,5.4972687,-3.9527435,-0.4963684,0.585907,0.14302063
-18.638779,12.85199,-14.846344,-0.628006,0.10758972,-0.21647644
-13.010437,13.976685,-12.033249,-0.8665619,-1.9586792,-0.49534607
-13.541428,9.26297,-8.880463,-0.7159729,-3.6119995,-0.36705017
-7.1600647,8.685104,-1.0463562,-0.23246765,-4.4882965,0.45761108
-3.0063934,8.673172,-1.1253052,-0.17289734,-3.7427368,0.039474487
3.3049774,5.9939423,2.5513458,0.25378418,-2.2876282,-1.4076691
0.9687042,1.2706909,7.3594666,1.1826172,-0.88049316,-2.1251373
-5.5043945,-3.3236237,3.1493683,1.4733887,0.7682495,-1.2390747
-5.702301,0.99609375,-2.1491241,1.2849274,0.9722748,0.3470459
-5.5381775,4.415558,-2.8093262,0.6520691,0.55810547,0.921875
-10.645187,9.110153,-3.4791107,-0.015609741,0.3870697,0.69096375
-14.796463,14.110397,-4.780411,-0.05836487,0.033065796,0.13232422
-17.844742,20.72725,-9.291901,0.4865265,-0.76412964,-0.37835693
-18.851181,14.370682,-6.043442,0.6141968,-2.6236115,0.29359436
-9.066757,9.036133,-1.1037598,-0.0993042,-2.8035126,1.9398956
-6.0112305,8.181274,-0.27850342,-0.47039795,-2.019455,2.3607788
-3.6097717,7.3645935,1.0706482,-0.4658203,-1.0179443,2.2838135
-3.4239197,7.0064087,1.7045441,-0.41481018,-0.6456146,2.3198547
-2.4247284,7.0016327,-0.14692688,-0.53149414,-0.90553284,2.41362
-1.2517548,5.876938,-0.24501038,-0.66526794,-1.2445679,2.1176453
-1.0707397,5.9366455,0.21907043,-0.4875183,-1.1596527,1.8479614
-3.1898193,7.1640167,0.39846802,-0.3665619,-0.8026123,1.5614624
-4.901016,6.9897156,0.6400757,-0.47834778,-0.40675354,1.3723907
-4.036957,6.206482,0.99172974,-0.6555023,-0.2735901,1.2389221
-2.7529602,6.3760223,1.8911438,-0.758728,-0.39424133,1.0382538
-2.1182098,6.610031,3.4818878,-0.73521423,-0.5170288,0.7181549
-2.912262,6.19693,4.826233,-0.62098694,-0.4632721,0.38859558
-4.5510406,5.093704,5.376419,-0.47773743,-0.31115723,0.102996826
-5.340271,5.234604,5.543869,-0.3149414,-0.14897156,-0.030166626
-5.4199066,6.4786987,5.0223846,-0.22390747,-0.097961426,-0.015197754
-5.0265045,8.066635,4.4913483,-0.29537964,-0.07810974,0.12591553
-3.8921509,8.207535,4.632477,-0.41786194,0.17662048,0.20532227
-4.3048706,7.3789215,4.30954,-0.46520996,0.25785828,0.21632385
-5.161667,7.1114807,3.2618103,-0.5788269,0.22518921,0.28016663
-4.9951324,7.5938416,2.450882,-0.6499939,0.14515686,0.26794434
-4.0128326,7.7657776,3.1780853,-0.5736389,0.09384155,0.052001953
-3.6580353,7.049408,3.8765717,-0.55104065,0.21784973,-0.22747803
-4.2372894,6.3449707,3.3670654,-0.62220764,0.38920593,-0.37805176
-4.7417145,6.4954224,3.101532,-0.6997833,0.49275208,-0.43302917
-5.2051086,6.729431,3.1206818,-0.74316406,0.6027069,-0.48710632
-5.8519287,7.238037,2.673355,-0.7660675,0.6854706,-0.58117676
-6.6266785,7.4744415,2.4987183,-0.9080963,0.5617676,-0.64959717
-6.9983673,7.0302887,2.761856,-1.0443115,0.39439392,-0.70487976
-6.6942596,6.0560303,3.436432,-1.0947113,0.33695984,-0.7565155
-6.394989,5.380249,3.5345154,-1.1221924,0.38430786,-0.791626
-5.9364166,4.7044983,4.376526,-1.1542664,0.31773376,-0.80140686
-6.2984314,4.5086823,4.4865723,-1.1170044,0.4573059,-0.908905
-6.766678,4.561203,5.1085052,-1.1127319,0.49092102,-1.0295715
-7.2734985,4.456131,4.847763,-1.0583649,0.5968933,-1.1407471
-7.611389,4.384506,4.051193,-0.97254944,0.5245056,-1.1819763
-8.292007,4.181549,3.936386,-0.8839569,0.29727173,-1.1822815
-9.576004,3.8926086,4.742523,-0.88212585,0.28657532,-1.096756
-10.425568,3.5153198,5.1419983,-0.92733765,0.40446472,-0.87654114
-9.761841,3.166687,4.694687,-0.895874,0.22702026,-0.6260834
-8.921936,3.2144318,4.481781,-0.80485535,-0.135849,-0.48771667
-8.907455,3.3218994,4.8573303,-0.790802,-0.33283997,-0.4177704
-9.04985,3.3457794,5.0463104,-0.80485535,-0.31054688,-0.35058594
-8.934006,3.1881714,5.132431,-0.78652954,-0.24334717,-0.26689148
-8.663696,2.9374542,5.3835907,-0.751709,-0.14164734,-0.18960571
-8.096512,2.6843262,5.347702,-0.6875763,-0.09338379,-0.14501953
-7.7827606,2.5267181,5.12764,-0.5785217,-0.26228333,-0.15110779
-8.016861,2.5792542,5.3237915,-0.5036926,-0.4067688,-0.17158508
-8.185806,2.6891174,5.543869,-0.48536682,-0.3310089,-0.19326782
-8.161682,2.6580658,5.531906,-0.49269104,-0.2861023,-0.16670227
-8.086868,2.4168854,5.7806854,-0.4649048,-0.28459167,-0.12545776
-7.872055,2.404953,6.172989,-0.40168762,-0.27053833,-0.07505798
-7.838272,2.3977814,6.290207,-0.26515198,-0.30169678,-0.03779602
-8.127884,2.5697174,5.833313,-0.1558075,-0.2809143,0.01260376
-8.308899,2.6938782,5.2615967,-0.14785767,-0.19692993,0.06359863
-7.753784,3.004303,4.9243164,-0.27523804,-0.11903381,0.08682251
-7.109375,3.3744354,4.838211,-0.39282227,-0.21281433,0.024810791
-6.9404297,2.7535858,5.1467743,-0.46063232,-0.37561035,-0.06436157
-6.998352,2.4503174,5.665863,-0.5211029,-0.43241882,-0.10316467
-7.0249176,2.309433,6.0581665,-0.54766846,-0.43363953,-0.10774231
-7.138336,2.233017,6.3356476,-0.52752686,-0.41744995,-0.1211853
-7.3169403,2.295105,6.366745,-0.46765137,-0.35331726,-0.14683533
-7.500366,2.3356934,6.316513,-0.4068756,-0.2748108,-0.15997314
-7.5969086,2.175705,6.3523865,-0.39343262,-0.24519348,-0.14990234
-7.4931335,1.8772125,6.4791718,-0.4071808,-0.2036438,-0.11109924
-7.3169403,1.8079834,6.4743958,-0.41267395,-0.17982483,-0.057647705
-7.2831573,1.8581238,6.3858795,-0.39648438,-0.16790771,-0.023757935
-7.256607,2.0587158,6.483963,-0.38426208,-0.20303345,-0.005722046
-7.227646,1.9918518,6.6131287,-0.38761902,-0.19692993,-0.0048065186
-7.1286926,1.7267914,6.610733,-0.3763275,-0.15112305,0.0031280518
-7.012848,1.6551361,6.55571,-0.35128784,-0.09979248,0.02267456
-6.9573364,1.7769318,6.512665,-0.34425354,-0.07872009,0.012298584
-6.930786,1.5691833,6.6131287,-0.370224,-0.0622406,-0.0017547607
-6.9404297,1.3972473,6.7590485,-0.39678955,-0.05215454,-0.0029754639
-7.012848,1.3757629,6.8308105,-0.4013672,-0.046951294,0.0049591064
-7.0683594,1.2945709,6.845169,-0.3949585,-0.026184082,0.019622803
-7.116623,1.409195,6.7710114,-0.370224,-0.011520386,0.025726318
-7.2107544,1.4497833,6.649002,-0.3320465,3.8146973E-4,0.015945435
-7.2710876,1.5285797,6.5628967,-0.3066864,-0.024673462,0.0064697266
-7.3145294,1.2754822,6.6442413,-0.2947693,-0.053985596,-0.010925293
-7.2807465,0.81700134,6.804489,-0.29508972,-0.06436157,-8.544922E-4
-7.2638397,0.87431335,6.9384613,-0.2782898,-0.069869995,0.015335083
-7.2879944,1.0701294,7.005432,-0.24743652,-0.065582275,0.020523071
-7.256607,0.81700134,7.0915527,-0.2242279,-0.05307007,0.025100708
-7.191437,1.0390778,6.9264984,-0.17993164,-0.04573059,0.029067993
-7.1407623,1.1489105,6.8164673,-0.11669922,-0.06253052,0.025100708
-7.080414,1.0390778,6.761444,-0.07211304,-0.08331299,0.012893677
-7.051468,1.0319061,6.806885,-0.055618286,-0.0982666,-0.007888794
-7.0587006,1.0032654,6.8475494,-0.041259766,-0.10406494,-0.024673462
-7.003189,1.0342865,6.900177,-0.028137207,-0.10255432,-0.021621704
-7.0224915,1.0629425,6.93367,-0.027526855,-0.095214844,-0.020095825
-7.073181,1.1178741,6.8571167,-0.031188965,-0.08085632,-0.022842407
-6.9983673,1.2253265,6.7829742,-0.021408081,-0.07048035,-0.021621704
-6.884918,1.1704102,6.78537,-0.01927185,-0.056121826,-0.0155181885
-6.788391,1.0032654,6.8643036,-0.029968262,-0.03993225,-0.002380371
-6.744934,0.9841461,6.957596,-0.041870117,-0.01977539,0.009216309
-6.7618256,1.1489258,6.9982452,-0.044921875,0.0034332275,0.0104522705
-6.831833,1.2181549,6.959976,-0.033325195,0.02909851,0.005554199
-6.9163055,1.1680145,6.890625,-0.02659607,0.041305542,3.6621094E-4
-7.034561,1.0510101,6.8810577,-0.033325195,0.036117554,-0.0020751953
-7.046631,0.94833374,6.924103,-0.045532227,0.036727905,0.0034179688
-7.0200806,0.9841461,6.919327,-0.038513184,0.03855896,0.009231567
-7.070755,0.9817505,6.871475,-0.02720642,0.03152466,0.012588501
-7.0828247,1.0892181,6.76622,-0.01499939,0.011383057,0.013198853
-7.0924835,1.1441498,6.7638245,-0.0067443848,-0.0029754639,0.0077056885
-7.0997314,1.1393585,6.7973175,-0.012252808,-0.0060272217,0.005554199
-7.080414,1.1059418,6.8379974,-0.014083862,3.8146973E-4,0.005554199
-7.039398,1.1250305,6.8140564,-0.007980347,0.011688232,0.007385254
-7.0056,1.1369629,6.8092804,-0.0015563965,0.015029907,0.007385254
-6.969406,1.1345978,6.8140564,-0.002166748,0.009857178,0.0049438477
-6.930786,1.1130981,6.837982,-0.007965088,0.0061798096,0.0028076172
-6.9163055,1.0414581,6.8810425,-0.0113220215,0.0061798096,0.0028076172
-6.9452667,0.99131775,6.9264984,-0.011642456,0.011077881,0.0025024414
-6.9935303,1.0151978,6.9049683,-0.00491333,0.017486572,0.0015869141
-7.008011,1.1298065,6.8571167,0.0039367676,0.022369385,6.1035156E-5
-7.1021423,1.1704102,6.8379974,-3.3569336E-4,0.034591675,-0.01184082
-7.1021423,1.1704102,6.7470703,-0.012252808,0.03855896,-0.010620117
-7.2638397,1.2587585,6.7686157,-0.0027770996,0.031845093,-0.019180298
-7.3290253,1.1704102,6.8595123,-0.035461426,0.02633667,-0.022537231
-7.3941803,0.9889374,6.6370544,-0.039733887,0.034591675,-0.036895752
-7.3121185,1.1513062,6.6370544,-0.0052337646,-0.0060424805,-0.03414917
-7.3072815,0.97698975,6.7255554,-0.040039062,-0.03352356,-0.028656006
-7.143173,0.94833374,6.548538,-0.0024719238,-0.032302856,-0.012771606
-6.899399,0.838501,6.61792,0.004852295,-0.05581665,0.0064697266
-6.9114685,0.98176575,6.849945,-0.016830444,-0.07872009,0.012283325
-6.887329,1.1130981,6.9264984,-0.023239136,-0.071395874,0.011352539
-6.822174,1.0868225,7.0078278,-0.018356323,-0.06742859,0.011978149
-6.761841,0.8934021,7.0078125,-0.015914917,-0.03718567,0.020523071
-6.754593,1.0605621,7.077194,-0.011642456,-0.0029754639,0.024795532
-6.788391,1.1369629,6.9815216,-0.0067443848,0.03640747,0.018997192
-6.8076935,1.1847382,7.041321,-0.018966675,0.026931763,0.015625
-6.9500885,1.1513062,6.950409,-0.029663086,0.053512573,9.765625E-4
-7.0224915,1.2277069,6.8212433,8.8500977E-4,0.06877136,-0.009399414
-7.2445374,1.1847382,6.900177,-3.3569336E-4,0.06694031,-0.03567505
-7.261429,0.91967773,6.718384,-0.0037078857,0.09169006,-0.043304443
-7.230057,0.79312134,6.5078735,0.038146973,0.06695557,-0.026824951
-7.1624756,0.9793854,6.622696,0.017990112,0.0067749023,-0.0029907227
-7.222824,1.2014465,6.778183,0.002105713,-0.026824951,0.005874634
-7.256607,1.1011505,6.8020935,-0.011947632,-0.025283813,-0.00390625
-7.2083435,0.90534973,6.718384,-0.0027770996,-0.0155181885,-0.012451172
-7.16008,0.9674225,6.7375336,-0.0043182373,-0.012771606,-0.014602661
-7.0900726,1.0748901,6.7829742,-0.0137786865,-0.021011353,-0.0020751953
-6.9911194,1.0414581,6.8212433,-0.02079773,-0.021316528,0.011047363
-6.9476624,1.0319061,6.8595123,-0.025680542,-0.013061523,0.011352539
-6.9549103,1.0199738,6.916931,-0.024765015,-0.00390625,0.0025024414
-6.9524994,1.0247498,6.916916,-0.021713257,0.0052490234,-0.0032958984
-6.9935303,1.1226501,6.9025726,-0.012557983,0.008300781,-0.005432129
-6.962158,1.0032654,6.9025726,-0.010101318,0.019302368,-0.0048217773
-6.9573364,0.85043335,6.8020935,0.002105713,0.032440186,-0.0045166016
-6.9887085,0.9029541,6.7638397,0.008514404,0.0284729,-0.0017700195
-7.0948944,0.90534973,6.78537,0.006072998,0.011367798,-2.4414062E-4
-7.116623,1.2396698,6.8260345,0.004852295,0.011062622,0.0034179688
-7.2397003,1.2587585,6.8308105,-0.013473511,0.011978149,-0.0087890625
-7.1600647,0.8289337,6.790146,0.0014953613,0.011672974,-0.012161255
-6.96698,0.91012573,6.6418457,-0.00920105,0.02357483,0.0037078857
-7.1286926,1.2969666,6.8595123,-0.02935791,-0.01399231,0.020828247
-7.0997314,1.0724945,6.715988,-0.007369995,0.009216309,0.011352539
-7.147995,1.0677338,6.7925415,-0.00920105,0.018081665,0.0107421875
-7.143158,0.8862457,6.7303467,-0.0046081543,0.008621216,0.0021972656
-7.1407623,1.0223541,6.9360657,-0.04737854,-0.007873535,3.6621094E-4
-6.9814606,1.0080261,6.8762665,-0.04737854,-0.0029907227,0.023880005
-7.2010956,1.1322021,6.634659,0.061065674,0.09291077,0.01777649
-7.326584,1.0677338,6.91214,0.10656738,0.22088623,-0.008178711
-7.155243,1.3303986,6.4983063,0.09098816,0.24165344,-0.0017852783
-6.971817,0.97698975,7.0078278,-0.044311523,-0.02835083,0.057785034
-7.080414,0.54478455,6.816452,-0.0357666,-0.031402588,0.0021972656
-6.9935303,0.8957977,6.5581055,0.0024108887,0.0284729,-0.015213013
-7.075592,1.1966705,6.5198364,0.0042419434,0.023880005,-0.006362915
-7.3145447,1.2993622,6.668152,-0.034851074,-0.058883667,0.0028076172
-7.2324677,1.1656342,6.8427734,-0.103881836,-0.1340332,0.015029907
-7.0828247,0.9936981,6.7710114,-0.058685303,-0.10531616,0.02999878
-6.9838867,0.7907257,6.7255554,0.0030212402,-0.055526733,0.03366089
-7.0635223,0.8575897,6.7255554,0.02470398,0.014419556,0.0028076172
-7.1311035,0.96266174,6.845169,0.0066833496,0.025726318,-0.021621704
-7.1214447,1.0271301,6.871475,-0.0073547363,0.025405884,-0.02406311
-7.070755,0.876709,6.802109,0.004852295,0.022964478,-0.015823364
-7.0948944,0.8623657,6.754257,0.021347046,0.04220581,-0.015213013
-7.073181,0.88386536,6.6753235,0.05921936,0.09565735,-0.012161255
-7.145584,1.0844421,6.546158,0.080596924,0.12712097,-0.017959595
-7.230057,1.2563629,6.6513977,0.023803711,0.044662476,-0.020401001
-7.285568,1.1536865,6.8427734,-0.0345459,-0.06376648,-0.01612854
-7.1262817,0.8719177,6.7327423,-0.03668213,-0.114151,-0.009109497
-7.080429,1.0462341,6.7470856,-0.024169922,-0.103775024,-0.0029907227
-7.1238556,1.1489105,6.7590485,-6.4086914E-4,-0.053375244,0.005859375
-7.0948944,0.9889374,6.7375183,0.0051574707,-0.0020599365,0.0018920898
-7.0828247,1.0534058,6.8140564,-0.015609741,0.0064849854,-0.0042266846
-7.106964,1.1107025,6.8260345,-0.008880615,0.017791748,-0.0057373047
-7.080414,1.0677338,6.7829742,-0.0033874512,-5.340576E-4,0.0015869141
-7.0900726,1.0032654,6.7710114,-0.0113220215,-0.027420044,0.007080078
-7.053879,1.0128021,6.711197,-0.007659912,-0.03718567,0.015335083
-7.0224915,1.1059418,6.7016296,-0.006134033,-0.05001831,0.020828247
-7.1745453,1.0271301,6.861908,-0.0070495605,-0.051239014,0.015945435
-7.1648865,1.0008698,6.8212433,0.0014953613,-0.01763916,0.010131836
-7.143158,1.0056305,6.761444,0.007293701,-0.022216797,0.01411438
-7.1359253,0.88386536,6.7638245,-0.0039978027,-0.026184082,0.012268066
-7.152832,1.0844421,6.76622,-0.00491333,-0.005126953,-0.0036010742
-7.1238556,1.2945709,6.7470856,0.010360718,0.0019073486,-0.008804321
-7.143173,1.0629425,6.8308105,-0.009506226,-0.017028809,-0.006958008
-7.080429,0.88623047,6.849945,-0.0357666,-0.024963379,0.004333496
-6.9935303,0.97221375,6.754257,-0.024154663,-0.033828735,0.016555786
-7.0200806,1.1465302,6.7877655,-0.012542725,-0.024368286,0.020523071
-7.104538,1.0892181,6.7686157,-0.0067596436,0.009841919,0.009521484
-7.0997314,1.0701141,6.7973175,-0.0046081543,0.02053833,-0.002380371
-7.0635223,1.0366821,6.8427734,-0.018661499,0.008621216,-0.007873535
-7.029724,0.94833374,6.8260345,-0.0067443848,-0.001449585,-0.005432129
-7.008011,0.8528137,6.7375336,0.0069885254,-0.006942749,-0.0017700195
-7.0635223,0.8957977,6.723175,0.014633179,-0.004196167,-0.005432129
-7.0924835,0.9530945,6.840378,0.004852295,-0.007873535,-0.0063476562
-7.080429,1.0008698,6.9073486,-0.002166748,-0.018249512,-2.4414062E-4
-7.1311035,1.0247498,6.854721,0.0066833496,-0.010620117,9.765625E-4
-7.111801,1.0366821,6.7805786,0.010955811,0.0061798096,-0.0036010742
-7.0369873,1.0534058,6.715988,0.011260986,0.007095337,-0.0036010742
-7.000778,1.0581818,6.7686157,0.0036315918,0.0025177002,-0.004211426
-7.0056,0.98654175,6.804489,-0.0030822754,-0.008468628,-0.0057373047
-7.0176697,1.1202545,6.8547363,-0.009506226,-0.0051116943,-0.0036010742
-7.068344,1.0414581,6.8475494,0.0030212402,-0.0032806396,-0.010635376
-7.0973053,1.0056458,6.799713,0.012786865,0.004043579,-0.01184082
-7.147995,0.9889374,6.811676,0.016143799,0.0046691895,-0.012161255
-7.150406,0.9530945,6.845169,0.011871338,0.005569458,-0.007873535
-7.138336,0.99131775,6.7590485,0.013702393,0.0037384033,-0.0026855469
-7.1238556,1.1560822,6.706421,0.015548706,-0.0063323975,-0.0032958984
-7.114212,1.1059418,6.7088013,0.012802124,-0.010620117,-0.0084991455
-7.0948944,0.9411621,6.778183,5.79834E-4,-0.017028809,-0.009719849
-7.1069794,0.9316101,6.861908,-0.008270264,-0.023132324,-0.005126953
-7.0973053,1.0342865,6.8858337,-0.009811401,-0.013061523,-0.0029907227
-7.073181,1.0629425,6.82843,-0.010726929,-0.008163452,-0.0014648438
-7.029724,1.0390778,6.7925415,-0.0110321045,-0.012145996,0.005554199
-7.000778,0.9698181,6.7757874,-0.007675171,-0.007247925,0.008911133
-6.9983673,1.0366821,6.8571167,-0.006134033,-0.006942749,0.011672974
-7.0056,1.0557709,6.895401,-0.007965088,6.866455E-4,0.00831604
-7.0056,1.0414581,6.8595123,-0.0024719238,0.0031280518,0.005859375
-7.0176697,0.99131775,6.8379974,0.004562378,0.0031280518,0.0015869141
-7.0635223,0.9793701,6.7973175,0.008834839,0.0074005127,-0.0032958984
-7.078018,1.0342865,6.749481,0.010650635,0.0077056885,-0.006652832
-7.116623,1.0557861,6.7088013,0.010345459,6.713867E-4,-0.010345459
-7.172119,1.0844421,6.7758026,0.0054626465,-0.0087890625,-0.010955811
-7.1793823,1.0223541,6.802109,-0.0024719238,-0.015823364,-0.004837036
-7.138336,0.9650574,6.828415,-0.0024719238,-0.012466431,0.0021820068
-7.0828247,0.98654175,6.835602,-0.005218506,-0.006958008,0.005859375
-7.0176697,1.0008698,6.811676,-0.005218506,-0.004211426,0.008300781
-6.976639,1.0319061,6.811676,-0.0024719238,-0.0057373047,0.0064697266
-6.9742126,1.0701294,6.82843,-0.0039978027,-0.0045166016,0.0027923584
-6.995941,1.0963745,6.8475494,-0.0058288574,-0.0057373047,4.5776367E-5
-7.008011,1.0128021,6.833206,-0.006439209,-0.001159668,-0.004837036
-7.027313,0.9554901,6.8308105,-0.002166748,0.0049438477,-0.006668091
-7.068344,0.97221375,6.8427734,0.0036315918,9.765625E-4,-0.003921509
-7.0948944,0.9984741,6.82843,0.0069885254,0.0025024414,-0.002090454
-7.111801,1.0653381,6.823639,0.0051727295,0.0037231445,-0.0011749268
-7.0948944,1.0725098,6.8140717,0.0030212402,3.6621094E-4,-2.593994E-4
-7.073181,1.0175781,6.773407,0.0011901855,6.1035156E-5,0.0015716553
-7.070755,1.0223541,6.76622,-0.0018615723,-0.0032958984,0.0040283203
-7.065933,1.0247498,6.790146,-0.006439209,-0.0036010742,0.0043182373
-7.070755,1.0080261,6.8140717,-0.008590698,-0.005432129,0.0024871826
-7.1262817,0.96266174,6.8547363,-0.0110321045,-0.0075683594,-0.0023956299
-7.0948944,0.95072937,6.854721,-0.008895874,-0.006652832,-0.0030059814
-7.0514526,1.0104218,6.773407,0.003326416,-0.0060424805,9.613037E-4
-7.041794,1.0868225,6.7590485,0.010955811,-0.009094238,0.0015716553
-7.0321503,1.1250305,6.78537,0.006072998,-0.010635376,-8.69751E-4
-7.010437,1.0939941,6.845169,-0.0030822754,-0.011245728,-0.0033111572
-7.008011,1.0557861,6.883438,-0.010421753,-0.00390625,-0.002090454
-6.96698,1.0175934,6.8858337,-0.0110321045,3.6621094E-4,3.5095215E-4
-7.010437,0.97221375,6.871475,-0.0067443848,0.010437012,-5.645752E-4
-7.015259,0.9793854,6.8571167,-0.0027770996,0.011367798,-0.0017852783
-7.0369873,1.0128021,6.823639,0.0014953613,0.015029907,-8.69751E-4
-7.0587006,0.99131775,6.806885,0.0027160645,0.015945435,-8.69751E-4
-7.109375,0.92445374,6.833206,-0.0012512207,0.007385254,-5.645752E-4
-7.1624756,0.94833374,6.861908,-0.006134033,0.0046539307,-0.003921509
-7.104538,1.0462341,6.7758026,-0.005218506,0.0037231445,-0.0023956299
-7.0997314,1.0462341,6.7518616,-0.0046081543,-0.0026855469,0.0021820068
-7.085251,1.0438538,6.7303467,-0.003692627,-0.00390625,0.0040130615
-7.085251,1.0701294,6.7733917,-0.0058288574,-0.0115356445,0.0015716553
-7.109375,1.1107025,6.82843,-0.015609741,-0.014297485,-8.69751E-4
-7.078018,1.0629425,6.8810577,-0.022628784,-0.014297485,0.0015716553
-7.008011,1.0151978,6.9145355,-0.02722168,-0.011550903,0.0052490234
-7.029724,1.0677338,6.873871,-0.032104492,0.007385254,3.5095215E-4
-6.995941,1.0342865,6.804489,-0.016830444,0.02204895,-0.0014801025
-7.034561,0.96266174,6.799713,-0.023239136,0.024795532,-0.005142212
-7.039398,0.88386536,6.816452,-0.029052734,0.021438599,-0.011856079
-7.0587006,0.9005585,6.8188477,-0.030273438,0.013198853,-0.014007568
-7.1021423,0.9316101,6.7805786,-0.016220093,0.0025024414,-0.011566162
-7.1238556,0.97221375,6.7327423,-0.003692627,-0.0060424805,-0.008514404
-7.109375,0.9984741,6.756653,-0.0030822754,-0.012145996,-0.003921509
-7.0973053,0.9793701,6.799713,-0.010421753,-0.017044067,0.001876831
-7.078018,1.0534058,6.8642883,-0.01499939,-0.01399231,4.5776367E-5
-7.0828247,1.1417542,6.91214,-0.025375366,-0.0026855469,-0.009719849
-7.04422,1.0701294,6.871475,-0.0357666,0.008605957,-0.019805908
-6.9862976,0.9745941,6.8475494,-0.036071777,0.007080078,-0.01889038
-6.9790497,0.78834534,6.8930206,-0.0357666,0.0076904297,-0.012176514
-6.9935303,0.70477295,6.840393,-0.021728516,0.04374695,-0.012786865
-6.9173126,0.73464966,6.708847,5.79834E-4,0.051071167,-0.0069732666
-6.8400726,0.68927,6.5174866,0.034484863,0.018692017,-0.0011749268
-7.107971,1.1023865,6.969589,0.036010742,-0.020095825,-0.020721436
-7.228653,1.2026672,6.9982758,-0.018356323,0.013198853,-0.02468872
-7.153839,0.9137268,6.816498,-0.0043182373,0.03640747,-0.020721436
-7.1345215,1.0784912,6.826065,-0.0043029785,0.04006958,-0.007293701
-7.1345215,1.0617828,6.7830048,-0.010406494,0.042816162,-0.0023956299
-7.1055603,0.81344604,6.6873016,-0.020187378,0.04067993,6.5612793E-4
-6.943863,0.66778564,6.675354,-0.015609741,0.02418518,0.012557983
-6.9100647,0.679718,6.5940094,0.01676941,0.013504028,0.0055389404
-6.8762817,0.9567261,6.692093,0.048828125,-0.046066284,0.024169922
-5.418503,-7.4868774,2.721222,-0.07182312,0.25920105,0.054519653
-5.5126343,-7.651657,2.9125977,-0.014099121,0.002029419,0.005645752
-5.442642,-7.732834,3.6804657,0.007583618,-0.041030884,-0.0065612793
-5.3316193,-6.99498,4.89563,-0.1063385,0.1761322,-0.050857544
-5.2543945,-7.2528687,3.6637115,-0.22607422,0.62939453,-0.14736938
-5.343689,-7.560898,2.5442047,-0.13687134,0.39115906,-0.2429657
-5.080612,-7.8856506,2.704483,-0.043426514,0.12359619,-0.15286255
-5.0299377,-7.8331146,3.4866943,-0.0315094,-0.098464966,-0.007797241
-5.0733795,-7.546585,3.527359,-0.05960083,-0.009597778,0.031280518
-5.015457,-7.7829742,3.2307434,-0.04647827,0.026748657,0.030670166
-5.051651,-7.8832855,3.3240356,-0.03578186,0.0010986328,0.028839111
-4.9188995,-7.933426,3.6278381,-0.07121277,-0.016616821,0.030685425
-4.7596283,-7.2958527,4.194748,-0.20347595,0.15106201,0.10246277
-5.0371704,-6.3956146,3.4292908,-0.21720886,0.39907837,-0.023071289
-5.416092,-6.873184,2.9030304,-0.021728516,0.5737915,-0.28208923
-5.0709686,-6.1472626,2.666214,0.057678223,0.6095123,-0.43632507
-4.2431183,-5.977722,1.941391,0.09463501,0.45803833,-0.5334625
-3.6421661,-5.927582,1.6399994,0.012176514,-0.035247803,-0.5081177
-3.8810883,-5.454788,1.6017151,-0.2642517,-0.79455566,-0.5753021
-3.9921112,-5.6506042,4.0631866,-0.43315125,-0.96591187,-0.7619171
-3.6204224,-5.9920654,3.249878,-0.25080872,-0.5376892,-0.82118225
-3.574585,-6.6105347,3.1709442,-0.3308258,-0.27531433,-0.7167206
-2.8312073,-6.4553223,3.6254425,-0.65641785,0.18283081,-0.8608856
-1.0765686,-5.617157,2.226059,-0.6536865,0.46414185,-0.96443176
-0.66386414,-5.8822174,1.5921478,-0.49028015,0.025543213,-1.1815948
-0.92453,-7.890442,2.721222,-0.3500824,-0.26461792,-1.5511627
-0.9607239,-13.497208,3.6565247,-0.20774841,-0.26493835,-1.848053
1.7906952,-6.4911346,6.6442566,-0.076416016,0.8169098,-2.7017517
1.580719,-5.5335846,1.7835388,-0.34825134,2.1510468,-3.4353943
-0.67593384,-8.461136,0.07797241,-0.8442688,2.4534302,-2.926239
-0.996933,-9.87001,1.4677734,-0.78408813,1.2396393,-2.348053
-0.958313,-12.90979,2.0968933,-0.807312,2.1388397,-1.8981476
-1.1610565,-15.663025,-2.7327576,-0.48965454,1.8960114,-1.2142639
-4.407242,-22.633286,-0.20191956,-0.26364136,0.2775116,-0.2310791
-2.8239746,-17.040848,3.3431702,0.020721436,0.41984558,0.58717346
-2.0588837,-8.234299,0.9678192,-0.14512634,0.6205139,0.28785706
-4.105545,-11.680023,1.965332,-0.25782776,0.16970825,0.0016479492
-3.3573456,-11.787476,1.8696442,-0.3748169,0.30958557,0.014190674
-2.778122,-11.818527,2.14711,-0.32867432,0.16696167,-0.055740356
-1.6847839,-10.622192,2.104065,-0.28805542,0.25920105,0.122024536
-2.7781067,-10.349976,1.8696442,-0.19703674,0.1672821,0.12446594
-2.913269,-9.671814,1.5156097,0.028381348,0.14710999,-0.15011597
-2.478836,-7.4438934,0.5396271,0.24432373,0.04449463,-0.45921326
-1.9188995,-6.5914154,2.4963684,0.338089,-0.18122864,-0.6996002
-1.5689392,-8.446808,2.2787018,-0.1729126,0.16635132,-0.6614227
-1.5375671,-9.275406,1.6830597,-0.43099976,0.1773529,-0.55604553
-2.2254028,-10.39534,1.5825958,-0.3815155,8.087158E-4,-0.5355835
-2.196457,-10.68428,1.6758881,-0.29936218,-0.09938049,-0.4302063
-1.8947601,-10.557709,1.7404633,-0.23246765,-0.13969421,-0.30833435
-1.3589478,-9.936859,1.886383,-0.20559692,-0.13327026,-0.22372437
-0.881073,-9.483154,1.7428589,-0.2688141,-0.016296387,-0.17578125
-0.65904236,-9.308853,1.4964752,-0.29478455,0.06341553,-0.16447449
-0.64697266,-9.378082,0.99412537,-0.2770691,0.10618591,-0.1681366
-1.0765686,-10.466965,0.88887024,-0.22543335,0.14863586,-0.1876831
-0.8762512,-9.803146,0.69750977,-0.21444702,0.19171143,-0.15377808
-1.0958862,-9.733887,0.707077,-0.19276428,0.18193054,-0.14859009
-1.211731,-9.805542,0.74534607,-0.16160583,0.1532135,-0.14675903
-1.3106842,-9.70285,0.6377106,-0.13656616,0.10189819,-0.1546936
-1.4675598,-9.889099,0.589859,-0.12281799,0.027679443,-0.16203308
-1.2913818,-9.838959,0.38893127,-0.14543152,0.021255493,-0.12905884
-1.0524445,-9.753006,0.26693726,-0.17506409,-0.018753052,-0.08905029
-0.8497009,-9.755386,0.20713806,-0.18911743,-0.06211853,-0.06889343
-0.63249207,-9.559586,0.19995117,-0.20773315,-0.112838745,-0.091796875
-0.58662415,-10.285507,0.27890015,-0.2364502,-0.10458374,-0.075302124
-0.17150879,-9.640762,0.26693726,-0.25416565,-0.0816803,-0.07133484
0.0022735596,-9.3064575,0.20474243,-0.24256897,-0.11343384,-0.12295532
-0.17633057,-10.180435,0.22149658,-0.23706055,-0.09542847,-0.14982605
0.089157104,-9.738678,0.094696045,-0.24256897,-0.07006836,-0.1834259
0.1519165,-9.495102,0.010986328,-0.22605896,-0.0758667,-0.25611877
-0.03152466,-9.829407,-0.0942688,-0.23217773,-0.074035645,-0.29216003
0.106048584,-9.635986,-0.18278503,-0.26576233,-0.07159424,-0.29431152
0.019165039,-9.65509,-0.35980225,-0.2654724,-0.065475464,-0.34866333
-0.0942688,-9.784042,-0.350235,-0.2902069,-0.08106995,-0.3743286
-0.15460205,-9.87001,-0.29281616,-0.33236694,-0.084732056,-0.32331848
-0.15219116,-9.872406,-0.12297058,-0.33602905,-0.12382507,-0.29125977
-0.055648804,-9.9249115,-0.08230591,-0.30212402,-0.13787842,-0.26559448
0.052963257,-9.965515,-0.16842651,-0.27127075,-0.14489746,-0.23382568
0.10122681,-10.146988,-0.20431519,-0.2447052,-0.1577301,-0.19534302
0.12536621,-10.247299,-0.13253784,-0.19735718,-0.15589905,-0.15167236
0.089157104,-10.271179,-0.06794739,-0.14941406,-0.13787842,-0.10523987
0.055358887,-10.197144,-0.039245605,-0.10298157,-0.10153198,-0.054229736
0.11329651,-10.1064,-0.08470154,-0.061141968,-0.051437378,-0.010864258
0.19776917,-10.05864,-0.2952118,-0.03211975,-0.01234436,0.019378662
0.21466064,-10.034775,-0.44830322,-0.015625,-0.0016479492,0.03831482
0.20741272,-9.831787,-0.5583496,-0.012878418,-0.021499634,0.03526306
0.23638916,-9.89389,-0.58703613,-0.009506226,-0.056625366,0.031295776
0.20018005,-9.872391,-0.58465576,-0.011352539,-0.08595276,0.034957886
0.20018005,-9.822235,-0.5248413,-0.016540527,-0.098464966,0.04045105
0.29673767,-9.669418,-0.5009308,-0.020202637,-0.08930969,0.04197693
0.39328003,-9.705231,-0.5463867,-0.022338867,-0.07342529,0.03526306
0.38360596,-9.791214,-0.54159546,-0.02508545,-0.078933716,0.019989014
0.3739624,-9.834183,-0.4650421,-0.04096985,-0.090530396,0.016326904
0.4246521,-9.910599,-0.37174988,-0.05319214,-0.07922363,0.017227173
0.4005127,-9.958359,-0.2521515,-0.055023193,-0.06945801,0.022735596
0.55015564,-9.965515,-0.21386719,-0.04434204,-0.051742554,0.04258728
0.68289185,-9.853287,-0.13970947,-0.021118164,-0.022109985,0.052978516
0.7577057,-9.827026,-0.19714355,0.0017852783,0.033477783,0.05847168
0.73599243,-9.908218,-0.29281616,0.012176514,0.0884552,0.04624939
0.6032562,-9.853287,-0.36697388,0.013702393,0.13059998,0.03526306
0.41015625,-9.733887,-0.40525818,0.0084991455,0.15258789,0.029754639
0.25328064,-9.702835,-0.38850403,5.645752E-4,0.15228271,0.031295776
0.20983887,-9.77449,-0.3932953,-9.613037E-4,0.16023254,0.03312683
0.16157532,-9.822235,-0.48658752,-0.004928589,0.1745758,0.025482178
0.1157074,-9.79837,-0.5391998,-0.011047363,0.17121887,0.015106201
0.09881592,-9.781647,-0.55355835,-0.015319824,0.15901184,0.0050354004
0.019180298,-9.752991,-0.5391998,-0.012863159,0.14343262,-0.0062713623
-0.055648804,-9.812698,-0.5081177,-0.020507812,0.14097595,-0.009643555
-0.067718506,-9.807907,-0.48417664,-0.027832031,0.12846375,-0.0044403076
-0.101501465,-9.767319,-0.46266174,-0.023864746,0.10493469,-7.7819824E-4
-0.13772583,-9.795975,-0.40525818,-0.008590698,0.10310364,-0.006576538
-0.12805176,-9.831802,-0.4554901,0.002090454,0.09944153,-0.011779785
-0.11357117,-9.731506,-0.5081177,-0.012573242,0.076538086,-0.011169434
-0.05807495,-9.803146,-0.52963257,-0.029678345,0.052108765,-0.010559082
0.038467407,-9.874771,-0.5320282,-0.031814575,0.02583313,-0.013305664
0.06744385,-9.877167,-0.43634033,-0.026306152,0.0010986328,-0.015136719
0.038467407,-9.872406,-0.3191223,-0.01776123,-0.0025634766,-0.018798828
0.04812622,-9.886719,-0.31672668,-0.013183594,0.014541626,-0.01940918
0.055358887,-9.901047,-0.3310852,-0.017150879,0.020339966,-0.011169434
0.014343262,-10.0013275,-0.35742188,-0.017150879,0.0059814453,0.001663208
-0.041168213,-10.022827,-0.31196594,-0.011352539,-0.013259888,0.01663208
-0.024276733,-9.929703,-0.28804016,0.0017852783,-0.013870239,0.029464722
-0.08703613,-9.953583,-0.3430481,0.017669678,-0.0016479492,0.03465271
-0.12565613,-9.891495,-0.42437744,0.024383545,-0.0043945312,0.04472351
-0.16668701,-9.805542,-0.41481018,0.02255249,-0.02670288,0.055725098
-0.1328888,-9.843735,-0.35263062,0.019485474,-0.050216675,0.055725098
-0.055648804,-9.829407,-0.30000305,0.018875122,-0.06549072,0.05053711
-0.026687622,-9.838959,-0.26649475,0.017364502,-0.06945801,0.045333862
0.0046691895,-9.772095,-0.29281616,0.018585205,-0.05937195,0.0410614
0.038467407,-9.824631,-0.33587646,0.017044067,-0.042266846,0.037094116
0.0770874,-9.884323,-0.350235,0.009109497,-0.02670288,0.03526306
0.11329651,-9.846115,-0.33348083,0.0033111572,-0.011413574,0.03678894
0.06985474,-9.884323,-0.3143463,0.0042419434,-1.2207031E-4,0.037704468
0.011932373,-9.891495,-0.30477905,0.012786865,0.010574341,0.039230347
-0.012207031,-9.836563,-0.3263092,0.022857666,0.028900146,0.04197693
-0.048416138,-9.77449,-0.36697388,0.029571533,0.04966736,0.039230347
-0.07737732,-9.87001,-0.39569092,0.02835083,0.06614685,0.031280518
-0.099105835,-9.922531,-0.3741455,0.021331787,0.072265625,0.025177002
-0.10874939,-9.886719,-0.3263092,0.02041626,0.06706238,0.024261475
-0.17150879,-9.860443,-0.27845764,0.025299072,0.07714844,0.025482178
-0.2511444,-9.805542,-0.2832489,0.029876709,0.09516907,0.02822876
-0.27287292,-9.791214,-0.30717468,0.031402588,0.108306885,0.031295776
-0.25357056,-9.741043,-0.33348083,0.030792236,0.10891724,0.027313232
-0.22702026,-9.788818,-0.3263092,0.025299072,0.10525513,0.020599365
-0.21977234,-9.81987,-0.271286,0.015838623,0.09120178,0.0132751465
-0.20046997,-9.838959,-0.19714355,0.0042266846,0.074401855,0.009918213
-0.16667175,-9.838959,-0.13014221,-0.0030975342,0.06187439,0.011734009
-0.15943909,-9.848511,-0.08470154,-0.0027923584,0.052108765,0.015716553
-0.14736938,-9.841354,-0.06555176,0.003616333,0.05180359,0.016021729
-0.1304779,-9.843735,-0.058395386,0.0103302,0.056381226,0.014785767
-0.12081909,-9.862839,-0.0894928,0.010345459,0.06248474,0.011444092
-0.14013672,-9.848511,-0.1373291,0.006362915,0.054244995,0.0062561035
-0.19805908,-9.855682,-0.15168762,0.0084991455,0.042633057,7.4768066E-4
-0.19805908,-9.850891,-0.18518066,0.011566162,0.046295166,-0.0019989014
-0.20529175,-9.812698,-0.24258423,0.0057525635,0.056991577,-1.6784668E-4
-0.24391174,-9.788818,-0.29042053,-0.005844116,0.049972534,0.0034942627
-0.23908997,-9.822235,-0.26409912,-0.012252808,0.02859497,0.0041046143
-0.23425293,-9.860458,-0.21626282,-0.015930176,0.0056762695,0.0013580322
-0.22702026,-9.834183,-0.17559814,-0.014709473,-0.0028686523,0.0010528564
-0.2318573,-9.879562,-0.21386719,-0.015625,7.9345703E-4,0.0050354004
-0.12805176,-10.049103,-0.27845764,-0.008590698,0.045700073,0.009597778
-0.099090576,-9.941635,-0.30000305,-0.008300781,0.009643555,0.008987427
-0.19081116,-9.827026,-0.271286,-0.004623413,-0.009292603,0.005935669
-0.24391174,-9.764938,-0.25454712,-0.009521484,-0.019058228,0.010223389
-0.2776947,-9.769699,-0.24497986,-0.0040130615,0.0124053955,0.012054443
-0.25598145,-9.753006,-0.25694275,-0.030899048,-0.04777527,0.03189087
-0.16908264,-9.764938,-0.2401886,-0.021118164,-0.049301147,0.03892517
-0.053237915,-9.738678,-0.19714355,-0.008285522,-0.03555298,0.037704468
-0.06530762,-9.776871,-0.20191956,-3.5095215E-4,-0.016921997,0.024871826
-0.20046997,-9.79837,-0.24737549,0.0042266846,-0.0037841797,0.0062408447
-0.21253967,-9.810303,-0.2832489,-0.0024871826,-0.015396118,-0.007507324
-0.12565613,-9.819855,-0.3047943,-0.01928711,-0.042266846,-0.010848999
-0.08943176,-9.867615,-0.29042053,-0.029968262,-0.048980713,-0.0062713623
-0.12564087,-9.994171,-0.24737549,-0.037002563,-0.056625366,-0.001083374
-0.101501465,-10.008499,-0.22105408,-0.037612915,-0.035858154,0.0062561035
-0.05807495,-9.939255,-0.18995667,-0.03883362,-0.04348755,0.010818481
-0.038757324,-9.929703,-0.16842651,-0.0315094,-0.027008057,0.009902954
-0.06530762,-9.951187,-0.21865845,-0.023864746,-0.016616821,0.01663208
-0.12806702,-9.901047,-0.26889038,-0.020812988,-0.014175415,0.02822876
-0.15943909,-9.834183,-0.2952118,-0.025100708,-0.038909912,0.041671753
-0.14253235,-9.803146,-0.25216675,-0.020202637,-0.039215088,0.052978516
-0.0025634766,-9.688522,-0.2354126,-0.005554199,0.0059814453,0.06365967
-1.373291E-4,-9.688522,-0.28804016,-0.007369995,0.00630188,0.035568237
-0.06048584,-9.667023,-0.3789215,-0.022338867,-0.008972168,0.0132751465
-0.038757324,-9.621658,-0.45309448,-0.030593872,0.01210022,-0.003829956
-0.01461792,-9.748215,-0.4124298,-0.036697388,-0.0043945312,-0.026123047
0.07951355,-9.881943,-0.38131714,-0.040664673,-0.003479004,-0.03010559
0.101242065,-9.889099,-0.35980225,-0.051971436,0.018203735,-0.022155762
0.072250366,-9.922531,-0.35980225,-0.050445557,0.047836304,-0.020935059
0.04812622,-9.819855,-0.36935425,-0.044326782,0.07867432,-0.022460938
-0.038757324,-9.793579,-0.36457825,-0.036697388,0.094558716,-0.024597168
-0.15460205,-9.791214,-0.39089966,-0.033950806,0.10096741,-0.026123047
-0.18115234,-9.807907,-0.40525818,-0.037002563,0.08570862,-0.024597168
-0.20770264,-9.898651,-0.37893677,-0.045547485,0.07043457,-0.01940918
-0.21495056,-9.877167,-0.36935425,-0.047073364,0.05393982,-0.01574707
-0.2752838,-9.920151,-0.350235,-0.04371643,0.031341553,-0.010864258
-0.33802795,-9.905823,-0.3861084,-0.0415802,0.008728027,-0.0013885498
-0.32354736,-9.841354,-0.40286255,-0.04219055,-0.017837524,0.011138916
-0.2632141,-9.8580475,-0.37893677,-0.037002563,-0.031280518,0.020904541
-0.1907959,-9.843735,-0.39328003,-0.02935791,-0.031585693,0.020904541
-0.16184998,-9.729111,-0.43873596,-0.031204224,-0.02180481,0.02029419
-0.113586426,-9.764938,-0.47940063,-0.04371643,-0.008666992,0.016326904
-0.012207031,-9.879562,-0.5726929,-0.05105591,0.0078125,0.0068511963
0.009506226,-9.9249115,-0.6014099,-0.044326782,0.01210022,0.0038146973
0.028823853,-9.917755,-0.54878235,-0.036392212,0.013931274,0.012649536
0.019165039,-9.889099,-0.5105133,-0.030899048,0.049972534,0.023651123
0.0022735596,-9.81987,-0.49853516,-0.0256958,0.09793091,0.032196045
-0.04359436,-9.791214,-0.5439911,-0.021118164,0.1278534,0.027328491
-0.04359436,-9.669418,-0.6301117,-0.023254395,0.15228271,0.008377075
0.007095337,-9.772095,-0.63249207,-0.03303528,0.16481018,-0.0019989014
-0.03152466,-9.79837,-0.6468506,-0.044326782,0.15687561,-0.0032196045
-0.07496643,-9.8962555,-0.57507324,-0.054718018,0.15534973,0.0022735596
-0.14253235,-10.010895,-0.5081177,-0.064193726,0.17121887,0.02243042
-0.20046997,-10.020447,-0.3741455,-0.060821533,0.18222046,0.05847168
-0.18598938,-9.786423,-0.26649475,-0.016235352,0.20664978,0.123535156
-0.19805908,-9.459274,-0.4291687,-0.031204224,0.2368927,0.07374573
-0.42008972,-9.55481,-0.6970825,-0.046783447,0.274765,0.0062408447
-0.381485,-9.805527,-0.8310394,-0.06724548,0.24085999,-0.035598755
-0.28494263,-9.9487915,-0.677948,-0.08892822,0.15290833,-0.045684814
-0.32115173,-9.994171,-0.34783936,-0.10298157,0.086624146,-0.01940918
-0.4418335,-9.982239,-0.10862732,-0.089538574,0.078063965,0.017547607
-0.53352356,-9.860443,-0.10383606,-0.06541443,0.11715698,0.037704468
-0.5914612,-9.738678,-0.28564453,-0.045562744,0.12846375,0.043807983
-0.40078735,-9.776871,-0.5176697,-0.049224854,0.10218811,0.04319763
-0.25839233,-9.939255,-0.59661865,-0.062042236,0.088760376,0.039230347
-0.18840027,-9.772095,-0.6109772,-0.080078125,0.013931274,0.0410614
-0.3307953,-9.819855,-0.4124298,-0.09289551,-0.036468506,0.05480957
-0.30908203,-9.743439,-0.37174988,-0.09870911,-0.015701294,0.06274414
-0.24633789,-9.822235,-0.4076538,-0.098083496,0.019729614,0.053894043
-0.16908264,-9.48555,-0.7521057,-0.08616638,0.0655365,0.054504395
0.03605652,-9.951187,-0.8047333,-0.09931946,0.035614014,0.027008057
0.36912537,-10.278336,-0.8142853,-0.116119385,0.018203735,0.06367493
0.27018738,-9.901047,-0.56314087,-0.113983154,0.040802002,0.094818115
0.115722656,-9.829407,-0.48417664,-0.07914734,0.14160156,0.13360596
-0.009811401,-9.640762,-0.8717041,-0.07489014,0.22070312,0.11743164
-0.2318573,-9.898651,-1.051117,-0.077941895,0.25338745,0.0887146
-0.41285706,-9.784042,-1.089386,-0.060821533,0.23719788,0.07496643
-0.6783447,-9.614487,-1.0606842,-0.06602478,0.21643066,0.070388794
-0.85935974,-9.721954,-1.1468048,-0.08189392,0.21826172,0.07496643
-0.8279877,-10.032379,-1.1444092,-0.069992065,0.2026825,0.082595825
-0.8665924,-10.204315,-1.127655,-0.05014038,0.18099976,0.09359741
-1.0741577,-9.965515,-1.0941772,-0.037002563,0.12937927,0.123535156
-1.1175995,-9.807907,-1.0582886,-0.019897461,0.078063965,0.16508484
-0.83039856,-9.79837,-1.0869904,-0.012268066,0.06677246,0.19195557
-0.85453796,-9.884338,-0.96499634,0.0014801025,0.073791504,0.22035217
-0.743515,-9.449738,-1.1850739,-0.0043182373,0.035614014,0.23776245
-0.7652283,-9.65033,-1.1946411,-0.029678345,-0.0068359375,0.23623657
-0.6035156,-9.81987,-1.2687836,-0.03364563,-0.015396118,0.22218323
-0.37905884,-9.616882,-1.2544556,-0.013183594,-0.028823853,0.19410706
-0.33563232,-9.447342,-1.2209473,-3.5095215E-4,-0.016311646,0.1592865
-0.5866394,-9.690918,-1.089386,0.003616333,0.04385376,0.13575745
-0.15701294,-8.676041,-1.5223541,-0.009216309,0.096084595,0.12904358
-0.79901123,-10.622192,-0.8645172,-0.03211975,0.07104492,0.0639801
-0.21495056,-9.834183,-1.1802826,-0.12771606,0.13304138,0.084747314
-0.24632263,-9.63121,-0.6923065,-0.08526611,0.12358093,0.05116272
-0.20288086,-9.738678,-0.5679016,-0.045562744,0.22009277,0.01878357
-0.3307953,-9.905823,-0.7329712,-0.028457642,0.3529663,-0.022445679
-0.50457764,-9.471222,-1.0415497,0.013702393,0.41435242,-0.07040405
-1.2865448,-10.127899,-1.3883972,0.011871338,0.41374207,-0.065200806
-1.2238007,-9.872391,-1.3094635,-0.022033691,0.40426636,-0.015426636
-1.0476074,-9.776871,-1.201828,-0.048919678,0.4513092,0.004119873
-1.0451965,-9.657486,-1.0439453,-0.04373169,0.47850037,0.011764526
-0.92453,-9.764938,-0.9028015,-0.012573242,0.48857117,0.01663208
-0.8086853,-10.161316,-0.63249207,0.024398804,0.49682617,-0.0035247803
-0.012207031,-9.284973,-0.9315033,0.078445435,0.5456848,-0.04107666
-0.57455444,-10.287872,-0.92910767,0.04789734,0.6229553,-0.03741455
-0.64456177,-9.590622,-1.0032806,0.014923096,0.6871033,-0.01512146
-0.91004944,-9.79837,-0.9099884,0.017974854,0.6929016,-0.004119873
-1.1513824,-9.996567,-0.8621521,0.028656006,0.6803894,4.5776367E-4
-1.1658783,-10.154144,-0.8717041,0.059509277,0.6852722,-0.0071868896
-0.96315,-9.597794,-1.0104523,0.09616089,0.6608429,-0.029800415
-0.98243713,-9.2395935,-1.0845947,0.098602295,0.6437378,-0.05026245
-0.9848633,-9.487946,-1.1587677,0.082717896,0.6770325,-0.0496521
-0.71214294,-9.982239,-1.1659241,0.043319702,0.70726013,-0.053619385
-0.83522034,-10.080124,-1.1061401,-0.0021820068,0.7197876,-0.06919861
-1.095871,-9.671814,-0.8549652,5.645752E-4,0.6669464,-0.040481567
-1.4675598,-9.538086,-0.76405334,0.013687134,0.65901184,0.009902954
-1.6244354,-9.994171,-0.7042694,0.03843689,0.6461792,0.016021729
-1.6606445,-9.487946,-0.7233887,0.06072998,0.65411377,-0.016357422
-1.8778687,-9.366165,-0.7927704,0.076309204,0.63487244,-0.089660645
-1.728241,-9.681351,-0.75450134,0.06929016,0.5948639,-0.15686035
-1.3517151,-9.552414,-0.8549652,0.003616333,0.62112427,-0.19442749
-1.1755219,-9.401978,-0.9267273,-0.0644989,0.66023254,-0.22434998
-1.2141571,-9.354218,-1.0295868,-0.066329956,0.6330414,-0.24543762
-1.4579163,-9.497482,-0.8047333,-0.043411255,0.5282898,-0.2622223
-1.865799,-9.561966,-0.63249207,-0.048309326,0.45283508,-0.28056335
-2.0299072,-9.662247,-0.70906067,-0.048309326,0.47392273,-0.27322388
-1.8392487,-9.929703,-0.73535156,-0.056243896,0.4937744,-0.24391174
-1.5134277,-9.869995,-0.761673,-0.082214355,0.49223328,-0.20603943
-1.2141418,-9.764938,-0.69947815,-0.088012695,0.4806366,-0.18769836
-1.1296692,-10.01326,-0.4411316,-0.06724548,0.42106628,-0.20420837
-0.8762512,-9.946411,-0.28085327,-0.059906006,0.42138672,-0.23443604
-0.42492676,-9.619278,-0.12057495,-0.057769775,0.45986938,-0.26620483
-0.2776947,-9.518967,0.17364502,-0.07853699,0.47817993,-0.3086548
-0.92211914,-9.939255,-0.16365051,-0.111831665,0.488266,-0.35081482
-2.0371552,-10.770233,-1.0606842,-0.16314697,0.46871948,-0.32362366
-2.3967743,-11.109314,-2.0079498,-0.16772461,0.29125977,-0.22190857
-3.4732056,-12.93605,-0.8764801,-0.15460205,-0.07098389,0.011138916
-2.194046,-12.950378,-0.020111084,-0.1723175,-0.0929718,0.20967102
-1.612381,-12.971878,0.996521,0.063186646,-0.20414734,0.42010498
-1.3831024,-11.744492,1.6041107,0.39335632,-0.19621277,0.5990906
-1.4675598,-10.567276,1.5443115,0.7128296,-0.21911621,0.7875519
-1.462738,-9.650314,0.8841095,0.957489,-0.322052,0.9329376
-1.1827698,-9.105881,0.051651,1.1807709,-0.5157013,1.0245667
-0.8641815,-9.034241,-0.5798645,1.4278564,-0.65374756,1.0584717
-1.028305,-9.160797,-0.63009644,1.6599884,-0.7047577,1.0654907
-1.5665283,-9.473602,-0.3191223,1.8069,-0.6415405,1.1287231
-1.6196289,-9.87001,-0.24497986,1.7760468,-0.4216156,1.2328644
-1.5858307,-10.63652,-1.6395721,1.469101,-0.15254211,1.3144226
-0.67593384,-10.457413,-1.9337921,1.0063629,-0.15130615,1.3092346
-0.7531738,-10.3022,-1.7089386,0.71559143,-0.40237427,1.1259766
-1.4844666,-10.452652,-0.8095093,0.52989197,-0.78723145,0.9476013
-2.297821,-10.624588,-0.32868958,0.34204102,-1.1940613,0.82115173
-2.408844,-10.283112,1.2740173,0.23513794,-1.5996857,0.8287811
-2.5705414,-9.721954,1.5227966,0.25498962,-1.6265717,0.8000641
-2.4908905,-9.015137,1.5778046,0.2464447,-1.5792236,0.8028259
-2.2012787,-8.874252,1.6830597,0.19573975,-1.2814331,0.7603607
-1.4989471,-8.800232,1.3074951,0.110824585,-1.0325012,0.6650696
-0.99450684,-8.570999,0.90322876,-0.010131836,-0.9313965,0.55877686
-0.72662354,-8.613968,0.8482208,-0.10084534,-0.89260864,0.51478577
-0.97520447,-8.212799,0.76449585,-0.115493774,-0.781723,0.44699097
-1.2986145,-8.028931,0.96302795,-0.16497803,-0.640625,0.39537048
-1.677536,-8.224731,1.281189,-0.2117157,-0.4958496,0.31993103
-2.220581,-8.754868,1.4653778,-0.23034668,-0.39138794,0.23135376
-2.7998352,-9.1035,1.4247131,-0.2376709,-0.36663818,0.15438843
-3.1787567,-8.917236,1.357727,-0.24346924,-0.445755,0.104904175
-3.2415009,-8.528,1.4940796,-0.25813293,-0.5819702,0.08106995
-3.0870514,-8.334595,1.6950073,-0.28959656,-0.67544556,0.08718872
-3.3911438,-8.446808,2.2739105,-0.31648254,-0.6763611,0.13331604
-4.1272583,-8.157883,2.6040192,-0.35801697,-0.62779236,0.25273132
-4.7089233,-8.160263,2.6063995,-0.40933228,-0.561203,0.37245178
-4.465164,-7.4916687,2.192566,-0.39466858,-0.3675537,0.3715515
-2.9494781,-6.756195,1.4199219,-0.38336182,-0.18032837,0.31015015
-1.827179,-6.3191986,1.0324097,-0.49790955,-0.052963257,0.18736267
-1.0476074,-6.1711426,0.48223877,-0.64360046,0.07501221,-0.016662598
-0.21977234,-6.402771,0.3363037,-0.8109894,0.07043457,-0.2604065
0.39326477,-6.6009674,0.6807709,-0.98690796,0.045074463,-0.48672485
0.26293945,-6.8015594,1.6376038,-1.102356,0.11685181,-0.6431122
-1.2865448,-8.064743,3.1039581,-1.0250854,0.17550659,-0.6822052
-3.8810883,-8.831268,4.11821,-0.75691223,0.15718079,-0.49894714
-6.8473053,-7.9214783,4.907593,-0.44140625,0.07287598,-0.22434998
-8.283371,-5.0679474,4.034485,-0.2376709,0.25949097,0.082611084
-8.235077,-1.9421844,1.2524719,-0.14543152,0.7897339,0.30221558
-5.1481934,0.4767456,0.7884064,0.05340576,1.0316315,0.32206726
-2.2567902,0.722702,1.6830597,0.18351746,0.43481445,-0.09761047
-4.15625,-1.2306061,1.0395813,0.3319702,-0.5450134,-0.26864624
-8.336456,-3.6184998,-0.4554901,-0.307312,-0.85380554,0.067337036
-9.176376,-5.8535614,1.8792114,-0.6839142,-0.94911194,0.51297
-4.0403748,-4.43515,1.3050995,-0.07336426,-1.2771454,0.43415833
-1.9526825,-3.582672,4.11821,0.25346375,-1.8370056,0.028549194
-2.7394867,-5.2446594,0.77885437,-0.03578186,-0.97750854,-0.14433289
-2.2254028,-10.629349,-3.4647217,-0.52111816,-0.366333,-0.14677429
0.8349457,-12.649521,-3.5508575,-0.18789673,-1.208725,0.025482178
3.8059845,-10.338043,-2.9600067,0.2788086,-1.8489227,0.22096252
5.1165314,-11.381531,-1.5606384,0.06867981,-1.3669434,0.49554443
5.3337555,-13.829132,-4.6846924,-0.3442688,-0.50286865,0.5236511
3.9942474,-15.908981,-4.7301483,-0.29081726,-0.14154053,0.27349854
4.018387,-13.65004,-5.3090363,-0.08831787,0.04171753,0.29885864
3.1543427,-10.001343,-6.4979095,-0.38978577,-0.14031982,0.33184814
0.69737244,-6.89946,-5.199005,-1.0186768,-0.18429565,0.48486328
-1.7113342,-7.890442,-1.7830963,-1.4163513,-0.52272034,0.414917
-14.773331,-40.58548,-8.588593,-2.4875183,0.048446655,1.0019684
-34.897293,-100.7413,-19.64006,-5.3616486,0.37922668,4.6076202
14.092438,1.3602753,-2.062973,1.4119873,-8.537643,0.9323273
26.483475,17.459457,21.090103,-0.9936371,-2.296692,-3.6131592
15.743286,15.596893,5.429077,-3.5901337,1.9390869,-4.1540833
-8.251984,10.216965,4.6277313,-3.985672,0.29125977,-1.3071289
-23.64061,-13.94136,9.038742,-2.9212341,1.9445801,1.5285339
-20.317184,-28.791672,-6.861511,-2.179016,2.8761597,3.0230255
-23.266525,-8.055191,1.0611115,-2.8864136,-0.50927734,0.67607117
-2.5995026,12.401886,0.5324707,-3.963684,-0.32937622,-0.44091797
8.717514,4.4406433,-2.6944885,-4.653961,-0.16200256,-0.66999817
4.628998,-6.321594,-2.7375336,-4.6338043,-0.56181335,-0.6064606
-0.9727936,-3.950409,-1.3644714,-4.4933014,-0.16810608,-0.73687744
-1.6099548,1.6133881,-1.4386292,-4.894638,0.26376343,-0.67059326
-2.377472,3.1511993,-8.354172,-5.286209,0.7103119,-0.69107056
-1.4192963,-0.64556885,-13.401489,-5.400757,0.7457428,-0.56307983
1.334549,-3.1289825,-10.526184,-5.160675,-0.25883484,-0.28788757
0.93873596,-4.50441,-1.7543945,-4.8650208,-1.337616,-0.14189148
-4.904419,-6.309662,-1.8357239,-4.602646,-0.62075806,-0.3153839
-9.7773285,-10.937393,-15.389313,-4.282852,2.1104279,-0.7888031
9.9387665,18.636688,-55.631485,-6.700989,12.486069,-0.6321106
7.119766,2.446762,-34.91118,-5.211685,0.8187561,-1.185257
-12.593918,-24.025436,-5.4860535,-0.6665039,-0.7585144,-0.77934265
4.592804,13.882385,-10.50946,-0.45269775,-1.0737305,-0.5979004
6.3450165,14.369507,-14.157394,-0.2755432,-0.66596985,-0.3022461
2.7247314,6.5539246,-11.597855,-0.25080872,0.024932861,-0.18617249
0.965271,-7.345993,-10.93045,-0.26638794,0.25369263,-0.41464233
0.6104889,-3.2674713,-9.715271,-0.14115906,0.33952332,-0.8147583
-0.381485,-0.57632446,-9.593277,0.16181946,0.28790283,-0.9610748
-0.13772583,-9.354233,-10.40181,0.19696045,-0.05357361,-1.1644897
-2.1385193,2.356018,-9.215317,0.07600403,-0.28141785,-1.2026672
-1.1417389,6.9741974,-9.511932,-0.021728516,-0.26005554,-0.87615967
-0.40803528,4.452591,-10.411362,-0.08496094,-0.08961487,-0.86668396
0.1663971,2.1434937,-10.054947,-0.05593872,-0.05357361,-1.0560608
-1.0355377,-0.5810852,-9.375595,0.055541992,0.13519287,-1.122345
-0.83280945,-1.3667145,-9.576523,0.0042266846,0.36669922,-1.1018677
0.18328857,0.29049683,-9.538254,-0.039749146,0.5148468,-1.1153107
0.9966583,1.4342957,-9.545441,0.037521362,0.5481262,-1.4234924
-0.45870972,-2.2956085,-9.7296295,0.30691528,0.57470703,-1.3547668
-0.17875671,0.39079285,-8.782364,0.41168213,0.5062866,-0.6516571
-4.6292725,5.3408813,-9.562164,0.36158752,0.4094696,-0.41984558
-3.7700653,3.681305,-9.555008,0.3350067,0.06311035,-0.24726868
-1.0258942,-0.13456726,-9.430618,0.36463928,-0.20355225,-0.1956482
-0.36218262,-0.15127563,-10.1458435,0.41015625,-0.13969421,-0.13302612
0.026412964,-0.16798401,-11.160095,0.37350464,0.15016174,-0.07254028
-0.07014465,-0.29693604,-10.9591675,0.29226685,0.3734436,-0.03375244
-0.08703613,-0.25872803,-10.466385,0.35549927,0.65382385,-0.041381836
0.36671448,-0.8318329,-10.179337,0.53507996,1.038681,-0.061843872
0.6659851,-1.1231384,-9.665039,0.61328125,1.3544922,-0.035888672
0.8108063,-1.0562744,-9.679382,0.5598297,1.5371399,-0.1027832
1.3200684,-0.56437683,-10.038208,0.5500488,1.6947479,-0.05696106
1.8848267,-0.71481323,-9.882721,0.53479004,1.8584595,0.06918335
1.9572296,-0.66467285,-9.653076,0.46299744,1.9247437,0.21517944
2.1382446,-1.1327057,-9.339706,0.37504578,1.8877869,0.24266052
2.0248108,-1.5911865,-9.375595,0.34724426,1.6614532,0.1333313
1.9717102,-1.7320709,-9.177048,0.30815125,1.4042816,0.059402466
1.8365479,-1.3308868,-10.119537,0.2980652,1.2262115,-0.016342163
3.7432404,-2.6633453,-9.870743,0.52897644,1.443985,-0.079574585
3.71669,-2.2669525,-9.746368,0.8628235,1.848999,-0.23777771
4.834152,-2.4866333,-8.646011,0.96606445,2.3572388,-0.28359985
5.234787,-2.577362,-7.591095,0.7785187,2.6568756,-0.17608643
4.4986725,-1.9087677,-7.445175,0.45048523,2.595169,-0.07376099
3.7046204,-0.6766205,-7.708313,0.15849304,2.194748,-0.10644531
4.4310913,-1.2282104,-8.330246,0.0082092285,1.2741699,-0.09147644
5.2516937,-1.8299713,-8.071899,-0.030899048,0.36975098,-0.054534912
5.418228,-1.9947205,-7.7489777,-0.03730774,-0.08900452,-0.05117798
5.6595764,-2.1881409,-7.9068604,-0.04096985,-0.21026611,-0.022476196
5.497864,-2.4197845,-8.196304,-0.026626587,-0.15589905,-0.026428223
5.379608,-2.3959045,-8.308731,-0.016235352,-0.042877197,-0.085998535
5.6282043,-2.2048645,-8.184326,-0.018371582,0.15289307,-0.13731384
5.7585297,-2.6012573,-7.746582,-0.049224854,0.47392273,-0.14402771
5.997467,-1.087326,-8.229782,-0.01776123,0.6134949,-0.036514282
5.319275,-1.4741821,-7.942734,0.03630066,0.6168518,0.07374573
5.546158,-1.3285065,-7.8996735,0.040267944,0.7249756,0.10215759
5.5509644,-2.283661,-7.598282,0.051574707,0.74575806,0.10031128
6.410187,-0.41394043,-7.67482,0.013702393,0.7515564,0.065200806
5.847824,-2.4102325,-7.519333,-0.09442139,1.0450745,0.053894043
6.555008,-1.6222229,-7.854233,-0.27645874,1.8071289,-0.014526367
7.768997,-1.5816193,-7.7609406,-0.119781494,2.0108643,-0.09423828
7.6941833,-2.0520325,-6.6318665,0.20123291,1.8679199,-0.20022583
8.671646,-1.4717865,-6.256317,0.52041626,1.4164886,-0.45983887
9.381226,-5.1777954,-5.1798553,0.5897522,2.398758,-0.66815186
9.342621,-7.985962,-1.4721222,1.2467346,2.5114594,-0.276886
8.184113,-4.088913,-8.980896,1.1465607,2.8285065,0.06611633
7.597641,-0.6288605,-10.27742,0.3078308,2.1412811,-0.16326904
8.502701,2.1076813,-8.571854,0.054626465,1.9540405,-0.34713745
7.4335175,2.036026,-6.856735,0.09738159,1.5392761,-0.34378052
5.604065,-0.56199646,-5.7515717,-0.21751404,0.98031616,-0.084472656
2.7102509,-3.6113434,-5.148773,-0.6246643,0.9732971,0.22492981
2.9491882,-4.3874054,-4.309143,-0.9139099,1.2347565,0.75639343
7.2211304,-4.40889,-2.7973328,-0.8271637,1.3721924,1.1009216
11.821304,-4.002945,-3.5699768,-0.33724976,1.3382874,0.9827118
15.685364,-2.2382965,-4.7014465,0.061340332,1.166336,0.59664917
17.205887,-0.13696289,-2.424179,0.3985443,0.16818237,0.058776855
13.262192,-2.6251373,-0.20431519,0.7232208,-0.30189514,-0.395401
8.768204,-5.41658,1.2644348,0.9443512,0.32640076,-0.38226318
7.3924866,-4.9199066,-2.529419,0.91381836,1.6467896,-0.13945007
7.4938507,-3.2531433,-5.3138123,0.51828,2.2808685,0.12231445
8.401352,-2.140396,-6.2132416,0.14595032,2.2335205,0.2741089
9.282288,-8.392334E-4,-5.354492,0.009429932,1.4876556,0.19927979
8.821304,0.25228882,-3.2350922,0.035995483,0.5527191,-0.05882263
8.657181,-1.4359589,-0.9386749,0.14137268,0.03378296,-0.32943726
9.871185,-3.0334625,0.9606476,0.23147583,0.274765,-0.43266296
11.365158,-4.439926,0.82429504,0.19848633,1.0490417,-0.28300476
11.541351,-4.556946,-0.6946869,0.18534851,1.5316315,-0.022476196
10.247681,-3.5993958,-1.4649353,0.27178955,1.4470367,0.049926758
8.608902,-1.5816193,-1.5701904,0.32707214,1.2772064,0.033432007
7.67247,-0.72436523,-1.5558472,0.32951355,1.1220398,-0.048431396
7.380432,-1.9565125,-0.58703613,0.25468445,1.0945587,-0.08721924
7.7931366,-2.4245453,-0.25454712,0.15174866,1.1406708,-0.03010559
8.097244,-2.2502441,-0.40525818,0.068359375,0.9763489,0.05480957
8.782684,-2.2120361,0.22866821,0.037521362,0.6486206,0.11192322
9.398132,-2.773178,0.35783386,0.05218506,0.52552795,0.14552307
10.380432,-1.7798157,0.91041565,0.026519775,0.62968445,0.18797302
11.186539,-2.1523285,1.2213898,0.05279541,0.6412811,0.1723938
11.152756,-3.487152,1.9246674,0.11387634,0.746048,0.08779907
10.9379425,-4.1247253,1.4199371,0.250412,1.0142212,0.013580322
10.773834,-4.1725006,0.7142639,0.3582306,1.1614532,-0.004135132
10.455246,-3.7020721,0.06121826,0.35180664,1.2597961,0.049621582
11.005524,-3.988617,1.1902771,0.28401184,1.1965637,0.09359741
11.541351,-4.1772614,1.4223175,0.3725891,1.3581543,0.15744019
11.787521,-4.1581726,1.6997986,0.52072144,1.5346832,0.17332458
11.43515,-3.2794037,1.3361969,0.69389343,1.6834412,0.15193176
10.107712,-2.5152893,1.3433685,0.80233765,1.6122742,0.07862854
9.248489,-2.4221497,2.9365082,0.81881714,1.598526,-0.005065918
6.9677124,-2.3815765,2.8575745,0.76109314,1.7039032,-0.056671143
4.913803,-1.9684601,2.4796295,0.6386261,1.6895447,0.0077667236
4.264557,-1.3452148,2.1782227,0.5579834,1.6718292,0.10397339
5.027237,-0.79600525,2.7403564,0.54148865,1.3752594,0.15071106
6.0312653,-1.3762665,3.6230469,0.5252991,0.8691406,0.16415405
6.555008,-1.9326477,4.572708,0.37654114,0.55270386,0.22891235
6.7746277,-2.2263641,5.101349,0.16793823,0.58843994,0.28633118
7.0980377,-2.1690521,6.292618,0.035995483,0.6819153,0.3330536
7.3200836,-1.9756317,6.696884,0.070510864,0.8498993,0.29640198
7.5373077,-2.0186157,6.2184753,0.14228821,0.8386078,0.21669006
7.380432,-2.0138397,5.8428955,0.11723328,0.6776428,0.17607117
6.552582,-0.56915283,6.1323547,0.0650177,0.48612976,0.17881775
6.472931,-1.1685181,6.275879,0.028060913,0.27842712,0.10734558
6.361908,-1.5696869,6.1108246,-9.613037E-4,0.081726074,0.020599365
6.448807,-1.8848877,5.895523,-0.00982666,-0.078308105,-0.05239868
6.8663483,-1.9827881,5.7448273,0.023468018,-0.16596985,-0.061569214
7.0980377,-1.7726593,5.56781,0.02104187,-0.24630737,-0.013916016
7.411789,-1.8944397,6.1036377,-0.0076904297,-0.29823303,0.055419922
7.631439,-1.6437073,6.7232056,-0.016540527,-0.23286438,0.11894226
7.660385,-1.7010193,7.220749,0.017059326,-0.0670166,0.12841797
7.486618,-1.9207001,7.019821,0.04118347,0.052719116,0.1217041
7.2597504,-2.1714325,6.3930817,0.047592163,0.04875183,0.09939575
6.7939453,-2.106964,5.9361877,0.061035156,-0.09480286,0.04319763
6.5356903,-2.0902405,5.6371765,0.080581665,-0.21728516,-0.001083374
6.738434,-2.1762085,5.213791,0.049118042,-0.26156616,0.0068511963
7.19458,-2.446045,4.9650116,0.003921509,-0.32815552,0.047164917
7.525238,-2.797058,5.0415497,-0.010116577,-0.3993225,0.1158905
7.6531525,-2.9379578,5.1228943,-0.0134887695,-0.4075775,0.19866943
7.5469513,-2.8089905,5.156372,-0.009811401,-0.4045105,0.28204346
7.334564,-2.8519745,4.912384,-0.0067596436,-0.39657593,0.33184814
7.1390686,-3.021515,4.613373,-0.011352539,-0.43658447,0.35932922
7.0594177,-3.231659,4.378952,-0.024780273,-0.5031738,0.38223267
7.238037,-3.336731,4.369385,-0.035476685,-0.53616333,0.40637207
7.6941833,-3.2197266,4.2473755,-0.028762817,-0.52485657,0.4466858
8.398926,-3.1743622,4.173218,-0.020202637,-0.5450134,0.46592712
8.575119,-3.2435913,4.3095703,-0.022338867,-0.66993713,0.43141174
8.249298,-3.3152466,4.7042694,-0.057769775,-0.80340576,0.39811707
7.93071,-3.3916473,4.799942,-0.11152649,-0.8183899,0.33000183
8.147919,-3.7999725,4.579895,-0.15917969,-0.75668335,0.27319336
8.563049,-4.2560577,4.3143616,-0.2040863,-0.67970276,0.2655487
8.934723,-4.165329,3.8909607,-0.22668457,-0.62687683,0.2924347
8.623383,-3.3844757,3.6565247,-0.1799469,-0.69651794,0.28755188
8.34343,-3.4537354,3.2618408,-0.07853699,-0.78967285,0.25364685
8.152756,-3.6686401,3.2785797,0.027130127,-0.84861755,0.22982788
7.9717255,-3.6734161,3.1422272,0.088531494,-0.79241943,0.2606659
8.058624,-3.6447601,3.0082855,0.08576965,-0.73439026,0.35139465
8.092407,-3.6280365,2.6901245,0.07234192,-0.76034546,0.4466858
7.814865,-3.6925201,2.5466003,0.049438477,-0.89749146,0.5071564
7.2162933,-3.8477478,2.620758,0.0045318604,-1.056015,0.50135803
6.9339294,-3.5635834,2.4939728,-0.015625,-1.169632,0.49279785
7.7641754,-3.1815186,2.2619476,-0.046783447,-1.2646179,0.5609131
8.029663,-2.340973,1.9748993,-0.09320068,-1.2435455,0.6559143
8.678909,-3.6925201,1.8002625,-0.18972778,-1.2969971,0.6696472
8.4158325,-4.4685974,1.9007416,-0.31036377,-1.3889313,0.65682983
8.594421,-4.2512817,1.5538788,-0.4102478,-1.4167328,0.6064148
11.036911,-4.841095,0.99412537,-0.463089,-1.2212524,0.38650513
13.68454,-4.635742,0.6448822,-0.39283752,-0.7621765,-0.035003662
13.935547,-4.041153,1.36969,-0.17047119,-0.79333496,-0.3905182
11.326538,-4.451874,2.4963684,0.05645752,-1.0755615,-0.52612305
9.320892,-4.7575073,1.9103088,0.051574707,-0.74079895,-0.41830444
8.550995,-4.736023,0.08274841,-0.12619019,-0.15345764,-0.2753601
8.246887,-4.8243866,-1.4912567,-0.3088379,0.036834717,-0.1663208
8.046555,-5.132416,-1.7065582,-0.44262695,-0.18980408,-0.10585022
7.8679504,-5.349716,-1.1994324,-0.42033386,-0.4396515,-0.09057617
8.121368,-5.173004,-0.73295593,-0.3219757,-0.4310913,-0.042007446
8.775452,-4.683487,-0.2832489,-0.28715515,-0.28448486,0.027328491
9.238831,-4.4996185,-0.12297058,-0.2914276,-0.2007904,0.023361206
9.615341,-4.759903,-0.39089966,-0.25325012,-0.2166748,-0.043533325
9.871185,-5.180176,-0.034469604,-0.17781067,-0.25302124,-0.134552
9.545364,-5.170639,-0.18518066,-0.11703491,-0.19194031,-0.14311218
9.098862,-4.907959,-0.25933838,-0.10725403,-0.1076355,-0.06614685
8.485825,-4.5903625,-0.34783936,-0.106033325,-0.038909912,-0.019104004
8.220322,-4.074585,-0.40524292,-0.09350586,-0.054489136,-0.014831543
8.495468,-3.5349274,-0.40286255,-0.073654175,-0.1000061,-0.02583313
8.8502655,-3.4298553,-0.47940063,-0.05532837,-0.13084412,-0.06706238
9.3233185,-3.6638641,-0.4219818,-0.05105591,-0.16934204,-0.08630371
9.767395,-4.002945,-0.29760742,-0.05807495,-0.16903687,-0.060653687
9.781891,-4.1677094,-0.28085327,-0.06112671,-0.1531372,-0.01940918
9.600876,-4.0769806,-0.33348083,-0.03883362,-0.15100098,0.010818481
9.142288,-3.7426605,-0.261734,0.013702393,-0.17910767,0.06794739
7.399719,-2.4961853,-0.07034302,-0.033950806,-0.46469116,0.06977844
7.730377,-2.9474945,0.57551575,-0.13963318,-0.64733887,0.104599
10.404572,-6.0159454,-0.63967896,-0.10908508,-0.15559387,0.0034942627
10.293549,-7.02124,-1.0487213,-0.028457642,0.15260315,-0.18373108
10.230789,-5.44046,-0.76405334,0.037216187,0.24482727,-0.26223755
9.135056,-4.131897,-0.6133728,-0.024475098,0.28027344,-0.285141
8.816467,-3.327179,-0.6923065,-0.106033325,0.30226135,-0.11256409
8.818878,-3.4919434,-0.8119049,-0.11824036,0.1507721,0.028839111
7.6579742,-4.6190186,-0.5439911,-0.051971436,-0.04624939,0.008682251
7.387665,-5.2948,-0.14212036,0.043319702,-0.15742493,-0.011779785
7.887268,-4.437546,-0.12536621,0.11051941,-0.09541321,0.061828613
8.970932,-3.7187958,-0.49855042,0.092803955,0.04324341,0.14613342
9.93634,-3.8405762,-0.7377472,0.019500732,0.06402588,0.13972473
10.006348,-4.222641,-0.6707611,-0.02142334,-0.014785767,0.037704468
9.219513,-4.2393494,-0.40286255,-0.004928589,-0.10458374,-0.062164307
8.570282,-3.8716125,-0.12536621,0.010345459,-0.09449768,-0.0914917
8.478577,-3.6996918,-0.07513428,-0.0064697266,-0.001953125,-0.06187439
8.818878,-3.7116241,-0.27607727,-0.025100708,0.06585693,-0.016967773
9.055405,-3.7784882,-0.44352722,-0.038223267,0.027664185,0.0034942627
9.151947,-3.902649,-0.3430481,-0.04800415,-0.05784607,-0.0044403076
9.077118,-4.0053406,-0.12536621,-0.059295654,-0.10456848,-0.024902344
9.007141,-4.1820374,-0.09666443,-0.06846619,-0.08900452,-0.042922974
8.95163,-4.406494,-0.3861084,-0.069992065,-0.03463745,-0.04017639
8.915421,-4.525894,-0.7329712,-0.062042236,-0.0010375977,-0.026733398
8.905777,-4.451874,-0.89323425,-0.042510986,-0.009597778,-0.014831543
8.8888855,-4.208313,-0.888443,-0.015319824,-0.04472351,-0.013916016
8.91301,-4.0435333,-0.7736206,0.0030059814,-0.050216675,-0.018493652
8.997498,-3.9957886,-0.6946869,-0.0012664795,-0.012039185,-0.01574707
9.067474,-4.036377,-0.7521057,-0.014404297,0.019729614,-0.0062713623
9.038513,-4.0626373,-0.72099304,-0.026321411,-0.0095825195,4.4250488E-4
8.9878235,-4.0960846,-0.5344238,-0.029373169,-0.05204773,-0.0056610107
8.903366,-4.1295013,-0.3932953,-0.024475098,-0.056015015,-0.015136719
8.946793,-4.0913086,-0.31433105,-0.025390625,-0.030059814,-0.014526367
9.007141,-4.0101166,-0.33348083,-0.028457642,-0.016311646,-0.007797241
8.999893,-3.9957886,-0.4291687,-0.026000977,-0.032806396,-0.007797241
8.975754,-3.9957886,-0.54878235,-0.023254395,-0.051437378,-0.013916016
8.92749,-4.0244446,-0.6420593,-0.019897461,-0.049606323,-0.019104004
8.932327,-4.0435333,-0.6683655,-0.021728516,-0.040740967,-0.016052246
8.975754,-4.0865173,-0.6707611,-0.028152466,-0.040740967,-0.010848999
9.028854,-4.0960693,-0.6348877,-0.032730103,-0.04562378,-0.011459351
9.043335,-4.103241,-0.6540375,-0.027526855,-0.038909912,-0.020019531
9.052994,-4.117569,-0.7018738,-0.017456055,-0.020584106,-0.024597168
8.985428,-4.1342773,-0.75927734,-0.012268066,-0.019973755,-0.024291992
8.91301,-4.1366577,-0.7257843,-0.01776123,-0.03189087,-0.019714355
8.871979,-4.1629333,-0.71144104,-0.026611328,-0.03616333,-0.016662598
8.855103,-4.1963654,-0.7138214,-0.02355957,-0.034942627,-0.014526367
8.93956,-4.1581573,-0.70425415,-0.015625,-0.0340271,-0.011169434
9.033691,-4.1056366,-0.6803436,-0.007080078,-0.033416748,-0.011459351
9.086792,-4.045929,-0.6612091,-0.0012664795,-0.030349731,-0.012680054
9.052994,-4.0101166,-0.6659851,0.0014801025,-0.025772095,-0.014221191
8.937149,-3.9910126,-0.6803436,5.645752E-4,-0.023330688,-0.016662598
8.852661,-3.9814453,-0.71621704,-6.5612793E-4,-0.03250122,-0.021850586
8.830948,-3.9719086,-0.7688446,-0.0037078857,-0.043182373,-0.026428223
8.891281,-3.9623566,-0.8142853,-0.005844116,-0.053878784,-0.028564453
8.958862,-3.9719086,-0.88127136,-0.009811401,-0.06640625,-0.026733398
8.968521,-3.916977,-0.8860626,-0.016540527,-0.089920044,-0.02949524
8.9926605,-3.8453522,-0.73535156,-0.018981934,-0.10458374,-0.04170227
9.033691,-3.974289,-0.5391998,-0.027832031,-0.08106995,-0.05239868
9.072311,-4.1342926,-0.45069885,-0.038223267,-0.027008057,-0.048736572
9.188156,-4.079361,-0.54878235,-0.038528442,0.011169434,-0.034988403
9.205032,-3.8620605,-0.71621704,-0.030288696,-7.324219E-4,-0.0178833
9.060242,-3.8023682,-0.7832031,-0.024780273,-0.05265808,-0.012084961
8.869568,-4.00296,-0.71144104,-0.028137207,-0.08502197,-0.016357422
8.823715,-4.174881,-0.799942,-0.0315094,-0.059677124,-0.018798828
8.91301,-4.210678,-1.0200195,-0.026000977,-0.030670166,-0.01727295
9.074722,-4.065033,-1.1611481,-0.023254395,-0.027313232,-0.009933472
9.132645,-3.9217682,-1.0295868,-0.031204224,-0.04043579,-0.009338379
9.050583,-3.878769,-0.83343506,-0.03730774,-0.04196167,-0.016357422
8.96611,-3.9002533,-0.7401428,-0.034561157,-0.033416748,-0.023071289
8.922668,-3.945633,-0.7999573,-0.029067993,-0.029129028,-0.02520752
8.9492035,-3.9719086,-0.88127136,-0.02722168,-0.028518677,-0.02154541
8.9878235,-3.9790802,-0.92910767,-0.027832031,-0.037384033,-0.01727295
9.00473,-3.955185,-0.9171448,-0.028747559,-0.049301147,-0.015136719
9.007141,-3.940857,-0.8860626,-0.02508545,-0.05265808,-0.0154418945
8.995071,-3.9432526,-0.86691284,-0.023864746,-0.047470093,-0.015136719
9.019211,-3.979065,-0.89323425,-0.02355957,-0.034332275,-0.013916016
9.084366,-4.0101166,-0.9386749,-0.018676758,-0.022109985,-0.012680054
9.1302185,-4.00296,-1.0104523,-0.0110321045,-0.01600647,-0.010864258
9.147125,-3.9957886,-1.0247955,-0.007369995,-0.014770508,-0.009338379
9.115738,-3.993393,-1.0056763,-0.007980347,-0.01171875,-0.006576538
9.055405,-3.9766846,-0.9984894,-0.0067596436,-0.004699707,-0.005050659
8.995071,-3.945633,-1.0271912,-0.005844116,-1.2207031E-4,-0.005355835
8.983002,-3.9623566,-1.039154,-0.0027923584,0.0010986328,-0.0071868896
8.975754,-3.9719086,-1.0487213,-9.613037E-4,7.9345703E-4,-0.005355835
8.975754,-3.9766846,-0.99609375,-0.00340271,-0.005004883,-0.0023040771
9.011963,-3.993393,-0.93629456,-0.0043182373,-0.0043945312,4.4250488E-4
9.060242,-3.979065,-0.88845825,0.0011749268,4.8828125E-4,4.4250488E-4
9.050568,-3.931305,-0.9099884,0.0060577393,0.010574341,4.4250488E-4
9.040924,-3.9193726,-0.9434662,0.010025024,0.01576233,-1.6784668E-4
8.997498,-3.878769,-0.97216797,0.012481689,0.01789856,4.4250488E-4
8.970947,-3.873993,-0.97216797,0.007904053,0.0078125,4.4250488E-4
8.937149,-3.897873,-0.94825745,5.645752E-4,-0.0013427734,-0.0019989014
8.946793,-3.9241486,-0.8908386,-0.009521484,-0.0010375977,-0.0035247803
8.983002,-3.8954926,-0.89323425,-0.012252808,0.0056762695,-0.0023040771
8.99025,-3.9098206,-0.8980255,-0.012863159,7.9345703E-4,-0.0016937256
9.0312805,-3.8954926,-0.87887573,-0.015930176,-0.017227173,-0.0035247803
9.014374,-3.8405762,-0.8310394,-0.015930176,-0.021194458,-0.010238647
8.980591,-3.8429565,-0.8525696,-0.016845703,-0.006225586,-0.01727295
8.970932,-3.859665,-0.9889221,-0.017456055,1.8310547E-4,-0.021850586
8.975754,-3.8620605,-1.089386,-0.019897461,-0.013870239,-0.022460938
8.941971,-3.8572845,-1.0343628,-0.026000977,-0.03555298,-0.020629883
8.934723,-3.893097,-0.9315033,-0.024475098,-0.04196167,-0.018493652
9.021622,-3.945633,-0.9028015,-0.018371582,-0.026992798,-0.014831543
9.091629,-3.9623566,-0.96261597,-0.012573242,-0.016921997,-0.013305664
9.081955,-3.940857,-1.0247955,-0.008590698,-0.022720337,-0.012390137
9.0264435,-3.9098206,-1.0271912,-0.012573242,-0.037384033,-0.010559082
8.985413,-3.912201,-1.0463257,-0.016540527,-0.031585693,-0.0099487305
9.021622,-3.9480286,-1.0559082,-0.012268066,-0.020584106,-0.011779785
9.024048,-3.979065,-1.0750275,-0.004928589,-0.011123657,-0.012390137
9.009537,-3.974289,-1.0965576,-0.0067596436,-0.016616821,-0.0074920654
9.0312805,-3.9384613,-1.039154,-0.0107421875,-0.022415161,-0.0029144287
9.065079,-3.9146118,-0.97935486,-0.012573242,-0.017532349,-0.0035247803
9.067474,-3.9002533,-0.99131775,-0.008895874,-0.0065307617,-0.006576538
9.069885,-3.8859253,-1.04393,-0.001876831,1.8310547E-4,-0.008102417
9.055405,-3.873993,-1.0798187,-0.0021820068,-0.0013427734,-0.007797241
-3.0146332,-9.2395935,1.7930908,-0.05683899,-0.034622192,-0.0047302246
-3.207718,-9.452118,2.0897064,-0.07821655,-0.07737732,-0.02305603
-3.0870514,-9.466446,2.486786,-0.13166809,-0.08470154,-0.0032043457
-3.1980743,-9.418701,2.2404022,-0.12159729,0.023712158,0.004425049
-2.8263855,-7.64209,1.7045746,-0.08004761,-0.02180481,-0.10064697
-2.8674011,-9.468826,2.5274658,-0.03942871,-0.07463074,-0.22953796
-2.9953308,-9.628815,2.18779,-0.106933594,0.08174133,-0.19380188
-2.8843079,-9.179901,1.9533539,-0.17443848,0.13214111,-0.035888672
-2.816742,-9.110657,1.7189331,-0.12219238,0.07807922,0.041381836
-2.9711914,-9.206177,1.7093658,-0.010726929,-0.09448242,0.033447266
-3.0339508,-8.905289,2.175827,0.048217773,-0.18000793,-0.0022888184
-2.988083,-8.310715,2.6135864,0.018005371,-0.040420532,-0.1027832
-2.6767426,-7.799698,2.3408813,-0.099594116,0.21430969,-0.3843994
-2.5029602,-8.296387,2.053833,-0.20742798,0.260437,-0.7167053
-2.201294,-9.628815,1.6615295,-0.30944824,0.1614685,-0.8455963
-2.155426,-10.951721,2.0490417,-0.38885498,0.031967163,-0.55085754
-3.0435944,-10.911118,1.6950073,-0.28256226,-0.026382446,-0.034362793
-2.8553314,-8.993637,1.5682373,0.036621094,-0.120147705,0.15837097
-1.6654663,-6.6535034,1.4318848,0.16825867,-0.11402893,0.08627319
0.3594818,-2.2167969,0.9678192,0.011566162,-0.50956726,-0.13087463
-0.12805176,-1.6174316,3.4077606,-0.6555023,-0.50712585,-0.23136902
-2.4691772,-6.861252,3.1757202,-0.7987366,0.02708435,-0.34957886
-2.3581543,-7.436737,1.7739563,-0.12617493,-0.1461029,-0.49067688
0.5766907,-8.499344,2.3600159,-0.2453003,0.45407104,-0.83369446
-0.5866394,-9.853287,0.04925537,-0.037902832,0.72561646,-1.5380249
0.27983093,-5.0106354,-2.4528809,0.5488281,-0.8669281,-1.0694733
-0.4418335,-5.075119,2.871933,0.47155762,-2.5752258,0.25733948
-2.6719208,-7.1477966,7.0939636,0.14259338,-1.0789032,0.92715454
-3.3356323,-10.615021,1.4940796,-0.57395935,1.2216339,1.075592
-11.659897,-24.04454,4.551178,-0.49760437,1.2924957,1.3193207
-5.9736176,-10.292664,0.14015198,0.3017273,0.5942688,-0.5688782
-3.1618652,-15.887497,-0.19714355,-0.11703491,-0.09114075,-0.8578186
-2.3267822,-16.393723,0.42481995,-0.28440857,-0.6711426,-0.7325897
-2.2061005,-14.617142,2.0299225,0.01889038,-1.0449982,-0.3000946
-2.3195496,-12.680557,2.2117004,0.017669678,-0.805542,0.21487427
-1.9261322,-11.937912,3.1350708,-0.268219,-0.40785217,0.57315063
-1.1658936,-7.2480927,2.4126434,-0.45025635,0.04449463,0.8605652
-2.338852,-1.904007,1.2213898,-0.37268066,-0.29943848,0.18281555
-2.944641,-8.5351715,1.8576813,0.057678223,-0.6958771,-0.17362976
-2.7925873,-11.118866,1.5658417,0.03538513,-0.61250305,-0.07406616
-2.2374878,-10.543396,1.5538788,-0.018371582,-0.6488495,0.05757141
-1.8633881,-10.266388,2.0729675,0.064086914,-0.69711304,0.14064026
-1.8126984,-9.98941,2.3504486,0.12425232,-0.7148285,0.20143127
-2.1023254,-10.080139,2.4604797,0.174057,-0.7487335,0.2548828
-2.5729675,-10.025223,2.4389496,0.20918274,-0.7594147,0.32391357
-3.0291138,-9.710022,1.7572174,0.28279114,-0.8489227,0.39050293
-2.850525,-9.600159,2.3408813,0.36891174,-0.95581055,0.44088745
-2.6598358,-9.2395935,2.0227356,0.2210846,-0.6131134,0.6107178
-3.7531738,-9.327942,1.764389,0.26322937,-0.7175751,0.55848694
-3.8786774,-9.920151,1.8337708,0.28094482,-0.7618561,0.6217041
-3.5890656,-10.061035,1.5825958,0.17863464,-0.81715393,0.75946045
-3.4056244,-9.65509,1.8074493,0.13496399,-0.9619293,0.8657532
-3.427353,-9.349426,1.970108,0.08395386,-1.0611877,0.957077
-3.4080505,-8.804993,1.4366608,0.09188843,-1.1494598,1.0496216
-3.4152832,-8.570999,1.2883606,0.06713867,-1.2499542,1.0581818
-3.4176788,-8.898132,1.5658417,0.014923096,-1.2059631,1.0157166
-3.309082,-9.179901,1.8313751,-0.010437012,-1.1900787,0.963501
-3.0773926,-9.2395935,2.3576202,-0.0027923584,-1.26828,0.92622375
-2.8963776,-9.177521,2.804947,0.011581421,-1.2554474,0.89904785
-2.91568,-8.955444,2.8025513,-0.005218506,-1.1644135,0.87797546
-2.9277496,-8.776352,2.3528442,-0.040359497,-1.1415253,0.8651428
-2.6912231,-8.881424,2.2021484,-0.059890747,-1.2163391,0.8455963
-2.2905884,-9.041412,2.4915771,-0.052871704,-1.1891632,0.80589294
-1.8175354,-9.084381,2.8599548,-0.053482056,-1.0578308,0.7622223
-1.4482574,-8.922012,3.166153,-0.0605011,-0.8880005,0.716095
-1.682373,-8.379944,3.0680847,-0.050735474,-0.7380371,0.6495056
-2.4836578,-7.747162,2.7642822,-0.09501648,-0.6351013,0.5114441
-2.918106,-7.5155334,2.8312683,-0.21231079,-0.63082886,0.3590393
-2.9011993,-7.4582214,2.8193054,-0.26820374,-0.415802,0.21670532
-2.9977417,-7.3889923,2.9963074,-0.32714844,-0.18519592,0.079559326
-2.8529358,-6.9352875,3.2355194,-0.41726685,0.010284424,-0.027954102
-2.6526031,-6.405182,3.5393066,-0.50920105,0.11198425,-0.12997437
-2.6501923,-6.075638,3.9100952,-0.6081543,0.19018555,-0.2387085
-3.101532,-6.175934,4.1206055,-0.72940063,0.28608704,-0.32543945
-3.7700653,-6.8302155,4.144516,-0.85250854,0.36793518,-0.39538574
-4.3638,-8.088638,4.089493,-0.91877747,0.36457825,-0.4555664
-5.1481934,-10.390549,4.2689056,-0.8806,0.1590271,-0.48640442
-5.9760437,-14.094177,4.4578857,-0.778595,0.009048462,-0.5038147
-6.3766785,-16.083298,4.144516,-0.67840576,0.049682617,-0.42471313
-5.855362,-12.69249,4.005783,-0.4249115,-0.18460083,-0.045684814
-5.3557587,-7.532257,2.1112366,-0.13078308,-0.2866211,0.25090027
-3.5166473,-4.3396454,-1.8333282,-0.11091614,0.07318115,0.3254242
-0.7628174,-3.7140198,-0.7066498,-0.54922485,-0.20628357,0.11985779
-1.2310333,-6.4003906,1.5419159,-0.6390228,-0.7047577,-0.2652893
-2.9977417,-10.58876,3.0298157,-0.48110962,-0.54592896,-0.41799927
-4.1562347,-12.776077,2.5633545,-0.46063232,-0.0340271,-0.27781677
-3.7676544,-11.200058,1.6160736,-0.5589905,0.25857544,-0.011474609
-2.3702393,-9.2300415,1.0658875,-0.47714233,0.25857544,0.100616455
-1.7765045,-8.747696,0.9797821,-0.32685852,0.17459106,0.007156372
-2.111969,-8.828888,0.93670654,-0.2129364,0.18862915,-0.13363647
-2.2736816,-9.330338,0.95825195,-0.16040039,0.3156891,-0.20205688
-2.235077,-9.858063,0.8051605,-0.15612793,0.44215393,-0.19534302
-2.3919525,-9.822235,1.1113434,-0.17353821,0.57684326,-0.16052246
-2.4257355,-9.304062,0.90802,-0.16101074,0.7579651,-0.12905884
-2.4546967,-8.993637,0.40568542,-0.16436768,0.93756104,-0.13365173
-2.370224,-9.34227,-9.765625E-4,-0.19247437,1.064621,-0.18862915
-2.6260529,-9.741043,0.089920044,-0.17781067,1.0285797,-0.23962402
-2.8432617,-9.84613,0.1545105,-0.109695435,1.0264435,-0.27017212
-2.7515564,-9.643158,0.16886902,-0.0315094,1.0175781,-0.2677307
-2.881897,-9.2109375,0.06838989,0.029876709,0.9342041,-0.25550842
-3.0798035,-9.232437,-0.017715454,0.028060913,0.88319397,-0.22680664
-3.2921906,-9.2157135,0.118621826,0.0030059814,0.8007202,-0.20114136
-3.9221191,-9.34227,0.30281067,-0.044631958,0.7842407,-0.19351196
-4.5206757,-9.034241,-0.017715454,-0.07609558,0.75735474,-0.20297241
-4.911667,-9.423462,-0.36457825,-0.05532837,0.6367035,-0.25367737
-4.7861633,-9.2682495,-0.43395996,-0.092285156,0.36669922,-0.28085327
-4.6292725,-9.234833,-0.29281616,-0.17781067,0.0954895,-0.31324768
-3.9824677,-9.182297,-0.22824097,-0.22668457,-0.07800293,-0.33247375
-3.055664,-9.098709,-0.010543823,-0.2770691,-0.12809753,-0.3413391
-2.8287964,-9.31839,-0.029678345,-0.3308258,-0.21362305,-0.38349915
-2.5560608,-9.325577,0.4391632,-0.30334473,-0.28295898,-0.41159058
-2.343689,-9.497482,0.22866821,-0.24224854,-0.20658875,-0.44854736
-2.2157593,-9.444946,0.27412415,-0.25752258,-0.17300415,-0.42684937
-2.4908905,-9.595398,0.08274841,-0.23951721,-0.10733032,-0.44274902
-2.6477814,-9.633606,-0.28804016,-0.20285034,-0.021499634,-0.47543335
-2.4571075,-9.459274,-0.5798645,-0.19369507,0.031326294,-0.50964355
-2.3436737,-9.612106,-0.3693695,-0.20927429,0.054855347,-0.5187988
-2.5295258,-9.667023,-0.43156433,-0.2205658,0.12632751,-0.50749207
-2.6574402,-9.337509,-0.61335754,-0.21537781,0.1632843,-0.5111542
-2.5295258,-9.361389,-0.5368042,-0.2217865,0.17550659,-0.5154419
-1.827179,-9.53331,0.03491211,-0.23980713,0.21643066,-0.49650574
-1.4603271,-9.621658,-0.022506714,-0.18544006,0.44825745,-0.5389557
-1.3155212,-9.440186,-0.37893677,-0.0904541,0.6770172,-0.48794556
-1.5472107,-9.638367,-0.26889038,-0.010437012,0.6736603,-0.41586304
-1.8078613,-9.905823,-0.350235,0.06990051,0.57102966,-0.38134766
-2.4233093,-9.628815,-0.49375916,0.1227417,0.483078,-0.37615967
-3.0049744,-9.404373,-0.68032837,0.19360352,0.5102539,-0.38990784
-3.3573456,-9.3064575,-0.4172058,0.26200867,0.57440186,-0.40150452
-3.6276703,-9.077225,-0.37654114,0.31730652,0.63487244,-0.41189575
-3.1135864,-9.332733,-0.12776184,0.34783936,0.6156311,-0.390213
-2.6960602,-10.037155,0.08036804,0.38357544,0.48887634,-0.32972717
-2.5633087,-10.199524,-0.044036865,0.4278717,0.32180786,-0.22558594
-2.0202637,-10.027603,0.25976562,0.46206665,0.06829834,-0.079574585
-1.1610565,-9.896271,1.1304932,0.52560425,-0.14978027,0.04626465
-0.71214294,-10.025223,1.3553314,0.66915894,-0.20170593,0.12994385
-0.8134918,-10.478912,1.1855011,0.8078308,-0.28875732,0.13482666
-0.79901123,-11.214386,0.6927185,0.89915466,-0.41947937,0.12475586
-0.6686859,-11.448395,1.2237854,1.0277405,-0.44329834,0.09298706
-0.85935974,-10.975601,1.5945435,1.1493073,-0.33457947,0.13941956
-1.5158386,-10.595932,2.0897064,1.1413574,-0.20751953,0.24601746
-1.9092407,-10.230576,2.2786865,1.0860748,0.034088135,0.40881348
-1.643753,-10.158936,1.7715759,1.0277405,0.29736328,0.5997009
-1.320343,-10.24968,1.1304932,0.9122925,0.31843567,0.77441406
-0.9510803,-10.51474,1.3888245,0.75224304,0.088760376,0.9158325
-0.6686859,-10.693817,2.2763062,0.5726471,-0.21606445,0.998291
-0.666275,-10.311768,2.9723969,0.3719635,-0.4420929,1.0132599
-0.8014374,-9.275421,3.367096,0.20062256,-0.54196167,0.9857788
-0.99450684,-8.594864,3.32164,0.1328125,-0.44880676,0.93659973
-0.777298,-8.363251,2.6470642,0.10227966,-0.24079895,0.8620758
-0.43699646,-8.5924835,1.6256561,0.08792114,-0.095718384,0.6907196
-0.37905884,-8.597244,1.0060883,0.15908813,-0.14764404,0.44241333
-0.48284912,-8.442047,1.4653778,0.2552948,-0.26615906,0.24356079
-0.63490295,-8.561447,1.9940186,0.27453613,-0.22796631,0.14735413
-0.7555847,-8.922012,2.4126434,0.20794678,-0.13023376,0.12536621
-0.85453796,-9.199005,2.5226898,0.11784363,-0.053878784,0.1363678
-1.1127777,-9.34227,2.2858582,0.06776428,-0.012634277,0.15803528
-1.8030548,-9.416306,2.192566,0.028671265,0.027374268,0.16934204
-2.7515717,-9.507034,2.427002,-0.017456055,0.14160156,0.21087646
-3.3356323,-9.480789,2.5178986,-0.008911133,0.3215027,0.29763794
-3.1835785,-9.738678,2.4054718,0.0066833496,0.4070282,0.37460327
-3.0653229,-9.791199,2.477234,0.016448975,0.3034668,0.39079285
-2.9760284,-9.588226,2.871933,0.021331787,0.08998108,0.35658264
-2.951889,-9.325562,3.2307434,0.050354004,0.0056762695,0.30648804
-2.7515717,-9.022308,3.0967712,0.08395386,-0.13269043,0.29182434
-2.3871155,-8.750076,2.754715,0.12243652,-0.22216797,0.27166748
-2.2181702,-8.79068,2.3672028,0.09799194,-0.23988342,0.24510193
-2.2761078,-8.976944,2.2308502,0.017669678,-0.20323181,0.2053833
-2.4619446,-8.867096,2.3911133,-0.048614502,-0.1736145,0.15805054
-2.4378052,-8.4826355,2.5800934,-0.055633545,-0.17453003,0.114990234
-2.3171387,-8.291595,2.5944366,-0.06175232,-0.15039062,0.062454224
-2.3171234,-8.4587555,2.4461212,-0.065719604,-0.13511658,0.001663208
-2.3943634,-8.69754,2.4078674,-0.08312988,-0.14520264,-0.045684814
-2.3605652,-8.785904,2.5753174,-0.11488342,-0.106414795,-0.08935547
-2.2809143,-8.723816,2.7332,-0.17567444,7.7819824E-4,-0.13883972
-2.2881622,-8.518463,2.7188416,-0.2388916,0.10342407,-0.20358276
-2.3219452,-8.613983,2.682953,-0.27952576,0.16603088,-0.26467896
-2.4136658,-9.089172,2.4676666,-0.26272583,0.1486206,-0.27903748
-2.481247,-9.542862,1.9844666,-0.21965027,0.11227417,-0.23931885
-2.3074646,-9.633606,1.6687012,-0.24867249,0.006286621,-0.20388794
-2.0443878,-9.1488495,1.9055176,-0.33114624,-0.068237305,-0.22312927
-2.0757751,-8.630692,2.108841,-0.44049072,0.011489868,-0.29675293
-2.225418,-8.64502,2.0944824,-0.51013184,0.19139099,-0.3917389
-2.1988525,-9.2825775,2.1734467,-0.48080444,0.31446838,-0.45985413
-2.1288757,-10.283112,2.259552,-0.35679626,0.27415466,-0.46138
-2.3581543,-10.753525,2.4461365,-0.23461914,0.09793091,-0.39234924
-2.70813,-10.653229,2.6614227,-0.20040894,-0.061203003,-0.25672913
-3.1884155,-9.970291,2.6470642,-0.1894226,-0.10244751,-0.117767334
-3.3211517,-9.251541,2.3049927,-0.13198853,-0.07342529,0.007156372
-3.1232452,-8.979309,1.8337708,-0.083740234,0.03744507,0.08291626
-2.766037,-8.845581,1.520401,-0.09655762,0.1315155,0.08810425
-2.6043243,-8.859924,1.441452,-0.15582275,0.09854126,0.041671753
-2.7901917,-9.203781,1.5562744,-0.22087097,-0.051437378,0.004714966
-2.983261,-9.502274,1.7332916,-0.2877655,-0.18307495,0.0010528564
-2.9977417,-9.53331,1.764389,-0.32901,-0.2243042,0.012054443
-3.0025635,-9.48317,1.9485779,-0.320755,-0.2243042,0.016937256
-2.978424,-9.421082,1.7739563,-0.26486206,-0.12504578,0.017547607
-2.6839752,-9.380478,1.3744812,-0.22331238,-0.005630493,0.019683838
-2.3171387,-9.330338,1.2070312,-0.25202942,-0.0068511963,0.008071899
-2.1071472,-9.184677,1.3385925,-0.30670166,-0.053268433,-0.03804016
-2.1361084,-9.151245,1.5610657,-0.3271637,-0.041671753,-0.11683655
-2.411255,-9.351822,1.5132141,-0.3143463,0.032562256,-0.17366028
-2.5343475,-9.561966,1.3481598,-0.2841034,0.09364319,-0.17793274
-2.408844,-9.719559,1.2548676,-0.24104309,0.09883118,-0.15563965
-2.3484955,-9.829407,1.2596588,-0.19796753,0.09059143,-0.14189148
-2.4643707,-9.619278,1.1711578,-0.16101074,0.112579346,-0.13365173
-2.4691772,-9.456894,1.0395813,-0.15826416,0.14923096,-0.11807251
-2.4498596,-9.375717,0.9678192,-0.17506409,0.15718079,-0.10491943
-2.486084,-9.330338,0.86016846,-0.20071411,0.17703247,-0.09881592
-2.4185028,-9.464066,0.70469666,-0.23492432,0.19137573,-0.10585022
-2.3991852,-9.609726,0.54441833,-0.26394653,0.16877747,-0.124176025
-2.401596,-9.67897,0.4343872,-0.28318787,0.1385498,-0.13761902
-2.3267822,-9.676575,0.5181122,-0.27464294,0.11105347,-0.13853455
-2.2423096,-9.545258,0.580307,-0.24684143,0.088150024,-0.12081909
-2.0733643,-9.454514,0.66163635,-0.20896912,0.06524658,-0.09790039
-2.0347443,-9.50943,0.702301,-0.1811676,0.05180359,-0.08293152
-2.196457,-9.65509,0.6090088,-0.17414856,0.0725708,-0.056671143
-2.3195343,-9.741058,0.5228882,-0.18788147,0.11930847,-0.020629883
-2.2809296,-9.714783,0.5635681,-0.16223145,0.13916016,0.0053253174
-2.196457,-9.600159,0.61380005,-0.10664368,0.1379242,0.012054443
-2.157837,-9.475998,0.52767944,-0.07060242,0.1055603,0.0065460205
-2.1361084,-9.516602,0.463089,-0.07121277,0.06585693,-0.0029144287
-2.1457672,-9.650314,0.43676758,-0.07975769,0.03652954,-0.0178833
-2.2278442,-9.659866,0.4343872,-0.088012695,0.047836304,-0.023376465
-2.2881622,-9.674194,0.3004303,-0.09197998,0.09547424,-0.011779785
-2.2061005,-9.738678,0.07318115,-0.095947266,0.14710999,-0.005355835
-2.0323334,-9.628815,-0.0033721924,-0.103881836,0.14465332,-0.006576538
-1.9792328,-9.456894,0.13298035,-0.101760864,0.102508545,-0.019714355
-2.0226746,-9.595398,0.21430969,-0.09838867,0.09425354,-0.042633057
-2.1264648,-9.784042,0.19277954,-0.09870911,0.09700012,-0.065841675
-2.196457,-9.731506,0.1592865,-0.10481262,0.09333801,-0.067977905
-2.1071625,-9.60495,0.04925537,-0.113967896,0.12571716,-0.052703857
-1.8344269,-9.671814,-0.20191956,-0.13322449,0.17764282,-0.041397095
-1.7330475,-9.671814,-0.261734,-0.16314697,0.16879272,-0.036514282
-1.8223572,-9.671814,-0.15885925,-0.18330383,0.1544342,-0.037124634
-1.7982178,-9.762543,-0.0057678223,-0.16467285,0.15136719,-0.048736572
-1.7909851,-9.662262,0.1545105,-0.12588501,0.15777588,-0.072250366
-1.7499542,-9.731506,-0.022506714,-0.07763672,0.2115326,-0.10646057
-1.7402802,-9.972687,-0.27845764,-0.036087036,0.2216034,-0.12234497
-1.9816437,-9.846115,-0.34544373,-0.025405884,0.17762756,-0.10707092
-2.2181702,-9.55719,-0.24497986,8.69751E-4,0.115615845,-0.07194519
-2.2616272,-9.53569,-0.21865845,0.029571533,0.12844849,-0.034072876
-2.3123016,-9.60733,-0.24497986,0.043930054,0.17518616,0.0010528564
-2.3798828,-9.600159,-0.30477905,0.026519775,0.18037415,0.045944214
-2.3919525,-9.748215,-0.25933838,-0.025390625,0.14830017,0.0716095
-2.1723175,-9.905823,-0.18278503,-0.049224854,0.14646912,0.06611633
-1.7354736,-9.79837,-0.12057495,-0.01776123,0.16448975,0.03526306
-1.4579163,-9.373322,-0.036865234,0.041488647,0.15350342,-0.009017944
-1.4844666,-9.2395935,0.010986328,0.08149719,0.13394165,-0.052093506
-1.6968536,-9.468842,-0.11817932,0.043014526,0.20602417,-0.07408142
-1.8682098,-9.645538,-0.36219788,-0.023864746,0.30438232,-0.070114136
-1.962326,-9.667023,-0.5463867,-0.09289551,0.3553772,-0.07286072
-1.9937134,-9.70047,-0.6468506,-0.12069702,0.33096313,-0.08140564
-2.078186,-9.855682,-0.45788574,-0.10298157,0.23657227,-0.091796875
-2.1723022,-9.846115,-0.08947754,-0.081604004,0.16601562,-0.090270996
-2.2423096,-9.612122,0.05404663,-0.07487488,0.19197083,-0.08201599
-2.1674957,-9.514206,-0.11817932,-0.08036804,0.2558136,-0.075302124
-2.109558,-9.578674,-0.3382721,-0.11152649,0.27078247,-0.0743866
-2.0950775,-9.72435,-0.46266174,-0.13626099,0.21611023,-0.07926941
-1.9888763,-9.657486,-0.5009308,-0.13871765,0.18525696,-0.09486389
-1.8296051,-9.521378,-0.50572205,-0.11947632,0.20848083,-0.115615845
-1.7716675,-9.495117,-0.44352722,-0.097473145,0.23443604,-0.14860535
-1.8827057,-9.523758,-0.35502625,-0.07885742,0.21763611,-0.16143799
-2.109558,-9.595398,-0.35980225,-0.08129883,0.16419983,-0.13700867
-2.2109375,-9.70047,-0.472229,-0.08343506,0.14738464,-0.10003662
-2.054062,-9.822235,-0.48179626,-0.05961609,0.15838623,-0.075302124
-1.9575195,-9.862839,-0.3143463,-0.023254395,0.16540527,-0.040786743
-2.1626587,-9.70047,-0.30000305,0.02041626,0.16296387,-0.01727295
-2.155426,-9.757767,-0.27845764,0.031402588,0.096069336,0.028533936
-2.3098907,-10.003723,-0.19714355,0.006668091,0.037734985,0.064590454
-2.2616272,-9.719559,-0.3932953,0.019195557,0.043533325,0.1000061
-1.8730316,-9.633606,-0.5105133,0.047912598,0.07896423,0.11802673
-1.7958069,-9.63121,-0.46266174,0.059509277,0.07774353,0.104904175
-1.8730316,-9.483154,-0.53681946,0.04486084,0.08477783,0.08413696
-1.870636,-9.332733,-0.60858154,0.019195557,0.11714172,0.052368164
-1.643753,-9.182297,-0.8166809,-0.007080078,0.13853455,0.021820068
-1.4868774,-9.459274,-0.97216797,-0.056243896,0.10707092,-0.017578125
-1.2865448,-9.879562,-0.8477936,-0.1381073,0.07041931,-0.05911255
-1.4168854,-9.800751,-0.57748413,-0.20439148,0.020324707,-0.10493469
-1.5134277,-9.60733,-0.60858154,-0.20927429,0.062164307,-0.14801025
-1.5327301,-9.848511,-0.72817993,-0.17262268,0.12875366,-0.2164154
-1.5085907,-9.65509,-0.8142853,-0.16802979,0.0914917,-0.19442749
-1.7282257,-9.705231,-0.6468506,-0.16925049,0.014831543,-0.16052246
-1.8078766,-9.889099,-0.5320282,-0.14085388,-0.023040771,-0.11654663
-1.7378845,-9.800751,-0.5487671,-0.10908508,-0.018463135,-0.08996582
-1.6871948,-9.583466,-0.589447,-0.081604004,0.006881714,-0.069503784
-1.5978851,-9.55719,-0.7090454,-0.05960083,0.026428223,-0.050567627
-1.4748077,-9.690903,-0.68751526,-0.062042236,0.03315735,-0.041397095
-1.5447998,-9.807907,-0.63249207,-0.06816101,0.04109192,-0.045059204
-1.7668457,-9.600174,-0.79037476,-0.06724548,0.06340027,-0.05239868
-1.8489075,-9.578674,-1.051117,-0.06968689,0.07987976,-0.048431396
-1.7595978,-9.738678,-1.1156921,-0.085876465,0.05117798,-0.03804016
-1.7330475,-9.757767,-0.91474915,-0.09655762,-0.004714966,-0.016357422
-1.7451172,-9.60495,-0.67315674,-0.09075928,-0.023651123,0.01083374
-1.7016754,-9.633606,-0.42677307,-0.060836792,-0.019683838,0.027923584
-1.7016754,-9.884338,-0.40525818,-0.027542114,0.0032196045,0.03036499
-1.7958069,-10.056259,-0.5750885,-0.00340271,0.018798828,0.025787354
-1.8199463,-9.917755,-0.67315674,0.0060577393,0.019104004,0.02456665
-1.6630707,-9.628815,-0.766449,0.009719849,0.025512695,0.022735596
-1.643753,-9.473602,-0.72099304,0.019195557,0.018493652,0.012359619
-1.8561554,-9.404358,-0.883667,0.028656006,0.03163147,0.012664795
-1.7885742,-9.569138,-1.0295868,0.006668091,0.07041931,0.017242432
-1.6099548,-9.920151,-0.8142853,-0.030593872,0.05606079,0.008087158
-1.7523499,-9.989395,-0.5583496,-0.037612915,0.030395508,0.0028839111
-1.7306366,-9.79837,-0.62532043,-0.022644043,0.09515381,-7.7819824E-4
-1.5472107,-9.571518,-0.74731445,-0.0024871826,0.15592957,-0.0029144287
-1.5230713,-9.337509,-0.756897,0.00819397,0.14311218,-0.008117676
-1.7716675,-9.41153,-0.82147217,0.005142212,0.123565674,-0.020019531
-1.9140625,-9.659866,-0.9937134,-0.014099121,0.13578796,-0.022155762
-1.6920166,-9.662262,-1.0941772,-0.03883362,0.16082764,-0.020629883
-1.4337769,-9.547623,-1.173111,-0.0644989,0.15226746,-0.03163147
-1.3010406,-9.518982,-1.1061401,-0.087402344,0.11959839,-0.05697632
-1.3879089,-9.53569,-1.1372223,-0.11091614,0.12844849,-0.09211731
-1.573761,-9.43541,-1.1898499,-0.13963318,0.12905884,-0.122039795
-1.7475433,-9.399597,-1.0439453,-0.16680908,0.0914917,-0.12936401
-1.7933807,-9.657486,-0.99131775,-0.18666077,0.075302124,-0.12263489
-1.4506836,-9.700455,-1.0798187,-0.19186401,0.11164856,-0.12814331
-1.1682892,-9.585831,-1.0223999,-0.18544006,0.10493469,-0.15014648
-1.2527466,-9.487946,-0.96499634,-0.18727112,0.06767273,-0.16693115
-1.5182495,-9.597794,-0.97216797,-0.19552612,0.040481567,-0.16082764
-1.7499542,-9.674194,-0.8764801,-0.1958313,0.028564453,-0.12449646
-1.9285431,-9.898651,-0.7090454,-0.18759155,0.046295166,-0.08052063
-1.9406128,-10.170868,-0.65641785,-0.15153503,0.06980896,-0.041107178
-1.7692719,-10.044312,-0.54159546,-0.09870911,0.062469482,-0.013320923
-1.7234039,-9.795975,-0.54159546,-0.0473938,0.05697632,0.0013427734
-1.7234039,-9.561966,-0.8214569,-0.00340271,0.08049011,0.0025634766
-1.7234039,-9.559586,-1.2998962,0.004837036,0.07621765,-0.0038452148
-1.8368378,-9.600159,-1.5199585,-0.028762817,0.016067505,0.007156372
-1.8827057,-9.447342,-1.5080109,-0.0803833,-0.00440979,0.035858154
-1.8464966,-9.738678,-1.1420135,-0.095947266,0.018188477,0.07159424
-1.5665283,-9.526138,-1.1898499,-0.05807495,0.018508911,0.08961487
-1.4506836,-9.879562,-1.0104523,-0.026321411,0.02949524,0.086868286
-1.5206757,-9.67659,-0.9984894,0.009719849,0.06767273,0.07098389
-1.7499542,-9.516602,-1.0869904,0.026519775,0.084472656,0.045318604
-1.8078766,-9.444946,-1.206604,0.0030059814,0.11593628,0.04776001
-1.6558228,-9.440186,-1.3764343,-0.026321411,0.14494324,0.055099487
-1.392746,-9.638382,-1.3764343,-0.033950806,0.14463806,0.07098389
-1.2696533,-9.423462,-1.1587677,-0.0067596436,0.16815186,0.08930969
-1.4265289,-9.659866,-0.86691284,0.010025024,0.18435669,0.047470093
-1.6220398,-9.602554,-0.69229126,0.03477478,0.22068787,0.03768921
-2.0323334,-9.65509,-0.73057556,0.065322876,0.27474976,0.06303406
-2.2398834,-9.743439,-0.8645172,0.097076416,0.3407135,0.110687256
-2.3074646,-9.593002,-0.85975647,0.12243652,0.35231018,0.1589508
-2.2857513,-9.425858,-0.77601624,0.11968994,0.3718567,0.19987488
-2.1674957,-9.153641,-0.85736084,0.10531616,0.39874268,0.21697998
-2.1264648,-9.091553,-0.68751526,0.14717102,0.39935303,0.22094727
-2.1529999,-8.972153,-0.6420746,0.2052002,0.37705994,0.25454712
-2.4209137,-9.2300415,-0.38850403,0.21528625,0.37583923,0.31808472
-2.6381226,-9.010361,-0.6707611,0.22872925,0.52856445,0.4249878
-2.5777893,-8.802612,-1.1874695,0.21376038,0.53985596,0.46040344
-2.6212463,-8.711884,-1.6443481,0.2723999,0.4072876,0.49217224
-2.6357117,-7.8928223,-1.0654602,0.29499817,0.29214478,0.54196167
-2.6164093,-7.4677887,0.30760193,0.4342804,0.011154175,0.5602875
-2.8577576,-7.1955566,0.4343872,0.63861084,-0.24542236,0.54745483
-2.6719055,-7.1764526,-0.08470154,0.684433,0.03100586,0.49491882
-1.6630554,-8.005051,-0.63009644,0.79042053,0.035583496,0.3501587
-1.4096527,-8.4348755,-0.45309448,0.77453613,-0.15257263,0.20536804
-2.1047363,-7.470169,0.094696045,0.65878296,-0.12324524,0.15008545
-2.9229279,-6.689331,-0.79037476,0.4773407,0.27870178,0.15803528
-3.1111755,-7.4104767,0.04685974,0.4107666,0.58566284,0.13543701
-3.1787567,-7.9835663,0.7238312,0.5500488,0.4338684,0.08229065
-3.8810883,-8.394287,1.0970001,0.8020325,0.27442932,0.15437317
-3.1932373,-7.441513,1.3959961,1.3041687,-0.07040405,0.4262085
-3.8255768,-8.341751,4.060791,2.1334229,-0.9729614,0.7340851
-3.058075,-7.279129,5.890732,2.620285,-0.80833435,0.9961395
-0.11117554,-4.375458,2.4222107,2.3615723,0.5688629,0.6604767
1.4093628,-1.8180237,-1.3070679,1.8246155,0.82543945,0.034942627
1.2355804,-0.42349243,-0.29281616,1.5106354,0.53985596,-0.274765
0.7239227,-0.71720886,1.8576813,1.6126556,0.49679565,-0.5267639
-2.6501923,-3.6208801,-0.13015747,1.3847961,0.68096924,-0.7011566
-5.483673,-7.866562,-0.62532043,1.2662964,0.3446808,-0.74575806
-6.8810883,-12.759354,0.5874634,1.5020905,0.1605072,-0.5957794
-4.981674,-15.264252,0.28608704,1.7705536,0.028259277,-0.29187012
-2.2688599,-14.184921,1.2548676,1.6810608,-0.37583923,-0.051498413
-0.7193756,-12.823822,-0.13493347,1.3405151,-0.49435425,0.04043579
2.2661743,-11.57019,-0.13493347,1.1062317,-1.036499,-0.15258789
5.0779114,-10.259216,2.67099,0.9379425,-1.049942,-0.5802002
4.1414795,-8.083862,3.338379,0.8203583,-0.5355835,-0.8056183
-0.20770264,-6.5962067,3.1302795,0.9406891,-0.14065552,-1.0304108
-4.1176147,-10.44072,2.3839417,0.9794769,0.1299591,-1.0783691
-9.002594,-22.946106,-0.589447,1.0448456,1.0028992,-0.86273193
-14.459564,-40.957993,-4.1058197,0.5372162,-1.1403503,-0.42962646
1.6338196,-28.920624,14.712784,0.802948,-2.237152,0.35961914
9.011978,-9.561981,15.676804,0.3570099,0.5587921,0.29548645
-3.6300964,-6.2380066,8.868912,-0.72088623,-0.00289917,-0.45619202
-9.236694,3.2347565,5.9338074,-2.2165985,-2.2023315,-0.625412
-0.04598999,15.059616,2.2404022,-3.012558,-2.0935974,-2.8947906
8.476166,5.818466,1.0467529,-3.0809631,-0.7915344,-5.2622223
12.5043335,-3.7187805,1.1496124,-3.5073547,-0.2805481,-5.847122
9.079544,-8.203247,5.7280884,-4.165573,-0.46990967,-5.4011993
4.964493,-14.748474,3.8981323,-3.9358826,0.57069397,-5.822693
-1.1610565,-30.339035,-3.859436,-2.827774,1.0441284,-6.042923
-4.3758545,-42.412216,5.268799,-2.9783478,1.1537781,-4.1745605
6.0216064,-24.49347,0.3602295,-2.0214233,2.5966492,-2.1382294
12.062668,-9.9105835,0.39849854,-0.9386444,1.0285492,-2.252472
10.71109,-7.314972,7.1681213,0.47428894,-0.66264343,-2.914032
7.4600677,-8.3966675,12.392456,1.4968872,0.59117126,-3.1739655
-2.8384552,-8.833649,6.158661,1.7708588,2.6882935,-3.2353516
-8.652634,-7.2528687,-4.3785095,1.8939514,2.485794,-2.8770752
-3.7000732,-2.255005,-4.179962,2.2296295,0.931427,-2.6370087
2.7585144,0.84210205,-2.7566833,2.1825867,1.1104126,-2.4989471
5.4713135,0.011108398,-0.8119049,1.9302979,1.3730774,-2.3862457
5.0803375,0.025436401,0.94389343,1.6832123,1.6165161,-2.1534882
4.114929,-0.36140442,3.3049011,1.6178436,1.7964172,-1.9021301
4.187332,-3.3032837,5.130066,1.6569366,2.094513,-1.6916809
4.0642242,-5.36644,5.206604,1.6838074,2.370636,-1.4568024
4.394882,-5.841629,4.1206055,1.8673859,2.3507843,-1.445816
9.118149,-6.94722,5.096573,2.0854645,1.4057617,-1.5792847
26.970993,-8.5112915,22.381836,-0.45332336,-3.7246246,-0.56311035
23.99031,2.867035,55.93332,-1.6900177,-4.065506,-0.15107727
10.626602,9.686859,-11.794006,-0.9038391,5.854431,-0.7567444
8.222733,1.6205597,-24.304657,-0.23370361,-0.37583923,-2.0038452
9.188156,-1.8944397,-11.863358,2.198471,-3.701416,-2.610138
10.303207,0.11618042,-1.9361877,2.6835022,-2.8770447,-3.176712
11.452026,0.73703,3.032196,3.1092834,-2.753662,-4.0884247
11.879242,1.8020325,3.4292908,2.459015,-4.769211,-4.497116
11.563065,0.6343384,14.031052,0.13374329,-4.27594,-3.5743866
17.987854,3.4186249,15.822723,-0.018981934,1.5395508,0.5437927
24.125458,14.591583,3.5799866,0.14228821,5.5499115,1.3040161
7.855896,8.392624,-11.913605,-0.048919678,4.3229675,-2.7439117
-3.0387726,-2.777954,-8.222595,0.50209045,-0.39813232,-2.9354095
-0.7338562,-3.472824,0.49179077,0.79896545,-2.269226,-1.785141
8.068268,1.4772797,9.242065,0.21040344,-1.4042358,-0.89053345
20.201065,9.316742,6.263916,0.17373657,1.0700836,-0.5380554
23.128662,10.928574,-0.6014099,0.18016052,0.98457336,-1.2045135
11.295166,2.9076385,2.2380219,0.29652405,-0.12902832,-1.7078705
5.3675385,2.274826,2.7379608,0.39091492,0.6073761,-1.4827576
6.7239532,6.623184,-0.16365051,0.2736206,2.049942,-1.3804474
7.7183228,5.424469,0.17604065,0.5051422,2.1324005,-1.5523987
6.1302185,3.657425,2.0251312,0.6157074,1.6061401,-1.6168518
2.2420197,3.986969,4.137329,0.23300171,1.2240448,-1.5792847
0.2026062,6.6637726,4.1014557,-0.36932373,1.6171417,-1.3184509
0.6635895,9.02063,3.0130615,-0.84213257,1.814148,-1.1253967
2.4278717,8.461868,2.1949615,-1.1729279,1.8181152,-0.87098694
2.3651123,8.1992035,2.783432,-1.4438324,1.41922,-0.7854614
-0.3380432,9.347778,5.4888763,-1.6677246,0.4897766,-0.703598
-0.72662354,10.353073,9.502808,-1.9994202,0.15991211,-0.6190033
-0.15943909,6.65184,11.014618,-2.2193298,0.42167664,-0.598526
0.7046051,0.71315,13.155533,-1.7184296,0.697464,-0.33494568
-0.82315063,-3.893097,10.292191,-0.6921692,1.0438385,0.14489746
