Acceleration x,Acceleration y,Acceleration z,Rotation x, Rotation y, Rotation z
-1.7556305,3.7681427,9.282349,-0.50579834,0.095703125,-0.014541626
-2.214203,3.405182,7.4858856,-0.39797974,0.19465637,-0.12724304
-2.3614197,3.4792023,7.387802,-0.1973114,-0.25341797,-0.104034424
-2.4096985,3.5532227,8.002579,-0.34698486,-0.6572113,0.042266846
-1.5094452,3.0876007,8.313553,-0.8127594,-0.76808167,0.09327698
-1.1353607,3.089981,9.540695,-1.055893,-0.6972046,0.16200256
-0.7540283,2.9634247,9.380432,-1.0207672,-0.2689972,0.1913147
-0.29304504,3.1019135,8.990509,-0.5867462,-0.3080902,0.14459229
-0.9205475,2.8726807,8.870911,-0.3475952,-0.3438263,0.07006836
-1.2632751,2.5025482,9.947357,-0.3839264,-0.34077454,0.10090637
-1.0339966,2.6386719,10.1124115,-0.37080383,-0.23570251,0.184906
-1.1425934,2.8464203,9.404343,-0.318573,-0.056411743,0.21514893
-1.3477631,2.922821,9.136429,-0.27978516,-0.07015991,0.16841125
-1.4442902,2.5646515,9.241684,-0.12705994,-0.2922058,0.10549927
-2.170761,1.5736694,9.11731,0.13684082,-0.5359497,0.08227539
-1.6615143,1.8076782,8.117401,0.21012878,-0.5249481,0.13389587
-0.57540894,2.6028595,7.705963,-0.03756714,-0.54571533,0.3073883
0.1800232,3.3621979,8.148499,-0.3405609,-0.495636,0.5098877
-0.288208,3.2571259,8.081512,-0.3604126,-0.39819336,0.5157013
-0.070999146,2.208847,7.1031494,-0.30513,-0.63002014,0.35809326
0.056915283,0.2268982,10.471222,-0.45936584,-1.3743591,0.2313385
-0.41130066,-0.31277466,12.030853,-0.9908447,-0.5270996,0.22735596
-2.0211182,0.8119354,13.217346,-1.5201569,0.61553955,0.65740967
-1.2608643,1.5473938,9.313446,-2.3860626,2.2203064,0.5832062
-0.40646362,2.6506042,7.9643097,-2.6606445,2.4692383,0.36541748
1.5653839,3.751419,11.535706,-1.2718353,-0.4049225,0.66841125
2.1711884,1.7503662,11.49025,0.23884583,-1.1959991,0.40756226
1.4784851,1.556961,11.059677,0.053756714,-0.77845764,0.02670288
-0.08547974,2.0393066,10.597992,0.25839233,-1.1141357,-0.1816101
0.020721436,1.1605682,10.7798,0.8625488,-1.9638519,-0.38441467
0.67237854,0.628067,10.320526,0.86499023,-1.860321,-0.3816681
1.3529968,1.5115814,10.263107,0.48686218,-1.2726593,-0.11227417
1.7874298,2.1300507,10.162643,0.33596802,-0.7436371,0.008361816
-0.64541626,1.6405334,8.978546,0.3481903,-0.5105896,-0.2039032
-0.7154083,1.6691895,5.4382477,0.27427673,-0.55519104,-0.52186584
-0.623703,0.20541382,3.273407,0.13621521,-1.9733276,-0.5753174
2.0408478,-1.8720703,10.65303,-1.0323792,-3.693222,-0.11076355
5.7890472,1.7169495,17.774277,-3.1267395,-1.8890228,0.9142914
4.748825,2.438095,11.803619,-2.795044,1.414566,0.46469116
1.9732666,1.2345886,9.251251,-0.9193573,1.4771881,-0.6006775
1.1140594,-1.4947815,11.70076,0.34391785,0.18917847,-1.2097015
0.14622498,-2.129959,10.236786,0.86712646,0.4768982,-1.3661041
0.12210083,-1.7073059,6.521881,0.9233246,0.8754883,-1.1183777
1.1695709,0.1051178,8.80632,0.09132385,0.636322,-0.76164246
1.3192139,2.2685394,10.987915,-1.2828369,0.52941895,-0.42352295
2.8349,2.170639,10.724777,-0.88423157,1.0590363,-0.35021973
3.2138214,-0.0357666,10.542984,0.1496582,1.0856171,-0.20237732
2.1977234,-0.18861389,9.94017,-0.082473755,2.024231,-0.12174988
0.80513,0.8190918,9.877975,-0.24220276,2.2166443,0.10092163
-0.7202301,-0.27696228,9.633987,-0.28710938,1.6244049,0.17756653
-0.9326172,-0.78318787,9.040741,-0.102630615,0.9145813,0.25149536
-0.3509674,0.34629822,9.691406,0.25656128,-0.019454956,0.33883667
-0.18925476,0.6495514,10.272675,0.36895752,-0.5402069,0.2337799
0.030380249,0.4298706,9.815796,0.2785492,-0.0942688,0.080444336
0.20655823,0.4012146,10.447296,0.4193573,-0.26623535,0.029434204
-0.23994446,0.39404297,9.638763,0.6178894,-0.39726257,0.044403076
-0.015487671,0.9862366,8.390106,0.589798,-0.5698395,0.20506287
0.29829407,0.94088745,8.789581,0.1643219,-0.94825745,0.19651794
0.662735,0.22929382,10.574081,-0.2709198,-1.0209656,0.17330933
0.2620697,-0.13128662,10.554947,-0.31704712,-0.57136536,0.21087646
-0.054092407,-0.17189026,8.253754,-0.06536865,-0.08969116,0.32022095
1.0030365,0.62327576,10.542984,-0.24313354,-0.35845947,0.43933105
1.200943,0.6113434,10.382706,-0.4312744,-0.12695312,0.49369812
0.42378235,0.11228943,10.650635,-0.20648193,0.27346802,0.5364685
0.2041626,0.3080902,10.416214,-0.08552551,0.9894104,0.6503906
0.28381348,0.38450623,9.794266,-0.062927246,1.5486603,0.7872162
0.45033264,0.3176422,8.916367,-0.048568726,1.4008331,0.7020111
0.27174377,0.05496216,9.124466,-0.0021362305,0.30004883,0.28479004
-0.013061523,0.5397186,9.480896,-3.0517578E-4,-0.2866974,-0.045394897
0.22105408,1.394577,10.255936,0.017410278,-0.09609985,-0.06278992
-0.3123474,1.1128082,10.227219,0.12644958,-0.066482544,-0.017593384
-0.2761383,0.546875,10.047821,0.16157532,0.028213501,0.14855957
0.14141846,0.19824219,10.27507,0.060775757,0.34249878,0.3073883
0.15588379,0.1146698,9.543091,-0.012832642,0.84646606,0.26522827
-0.67678833,0.19584656,9.033569,-0.059570312,0.68367004,0.1006012
-0.77090454,0.26750183,9.464157,-0.06414795,-0.07197571,0.011123657
-0.4981842,0.36538696,10.019119,-0.04397583,-0.628479,-0.018203735
-0.46440125,0.494339,10.031067,-0.029006958,-0.35725403,0.08074951
-0.06376648,0.11705017,9.72728,-0.018325806,0.015075684,0.2472229
-0.020309448,0.2603302,9.837311,-0.028717041,-0.061584473,0.2973175
-0.3050995,0.37493896,10.009552,-0.003967285,-0.093048096,0.20262146
-0.2447815,0.34629822,10.131546,0.059249878,-0.10771179,0.11557007
-0.13374329,0.651947,10.110016,0.09590149,-0.01272583,0.07312012
0.07624817,0.589859,9.629196,0.16615295,0.14793396,0.042266846
0.13658142,0.38450623,9.550262,0.20158386,0.04928589,0.008972168
-0.15788269,0.48718262,9.571793,0.18386841,-0.15414429,-0.02003479
-0.47647095,0.41792297,9.648331,0.13438416,-0.15231323,-0.002319336
-0.7395477,0.38926697,9.91626,0.062301636,-0.23202515,0.02394104
-0.5271454,0.3773346,9.839706,0.027786255,-0.16940308,0.043182373
-0.16993713,0.3916626,9.708145,0.033599854,-0.09609985,-0.029205322
0.38275146,0.5397186,9.677048,0.01802063,-0.10067749,-0.1302948
0.64341736,0.66148376,9.710541,-0.01802063,-0.100372314,-0.164505
0.47930908,0.6447754,9.854065,-0.06719971,-0.12054443,-0.10494995
0.27656555,0.671051,10.064575,-0.12004089,-0.123291016,-0.057907104
0.5179138,0.7498474,9.983231,-0.10568237,-0.053955078,-0.091812134
0.40447998,0.56596375,9.787079,-0.044281006,0.097854614,-0.13916016
0.13415527,0.4298706,9.842102,-0.014968872,0.13847351,-0.12173462
-0.18684387,0.19346619,9.763168,-0.01008606,0.10456848,-0.08540344
-0.17720032,0.21257019,10.023895,-0.019241333,0.05142212,-0.04598999
0.1655426,0.5110626,10.12915,-0.029327393,0.09082031,0.007446289
0.22103882,0.575531,10.038254,-0.00579834,0.21330261,-0.0044555664
-0.05168152,0.7737274,9.720108,0.057724,0.32966614,-0.018814087
-0.288208,0.518219,9.531128,0.1212616,0.27989197,-0.09272766
-0.3123474,0.1051178,9.736847,0.12187195,0.07066345,-0.1803894
-0.21339417,0.34152222,9.600494,0.10812378,-0.028900146,-0.1131897
-0.022735596,1.0196838,10.133926,0.07421875,-0.13490295,-0.06311035
-1.2005157,0.20779419,9.909088,0.1313324,-0.04508972,-0.08143616
-0.17236328,0.508667,9.220169,0.10354614,0.09814453,0.23072815
0.35862732,0.8931122,9.533524,-0.015274048,-0.0029449463,0.32937622
0.25242615,0.9384918,10.023895,-0.07299805,-0.18345642,0.18856812
0.13899231,0.87402344,9.923416,0.03756714,-0.24301147,-0.02279663
-1.0822601,-0.105026245,5.876007,0.1496582,-0.2851715,-0.18894958
-0.8505554,-0.3151703,10.942459,-0.30513,-1.0255432,-0.03286743
1.6812286,1.1486206,11.43045,-0.71502686,-2.0704346,0.33702087
1.9877472,0.6877594,11.461548,-0.35858154,-1.2384338,0.110687256
1.1719818,0.10749817,10.657806,-0.08369446,0.23561096,-0.120529175
-0.2640686,0.14570618,9.253647,0.058944702,1.2527008,-0.21795654
-0.25442505,0.1242218,8.947449,0.07575989,0.7130127,-0.19932556
0.3634491,0.13615417,9.495239,0.043395996,-0.15136719,-0.08998108
0.48413086,0.3964386,9.856445,1.5258789E-5,-0.3935852,-0.02279663
0.6385956,0.6017914,9.973663,0.0073394775,-0.24391174,0.010498047
0.65065,0.585083,9.94017,0.04949951,-0.084487915,0.007446289
0.6361847,0.50390625,9.983231,0.07575989,-0.024002075,0.007446289
0.58065796,0.4203186,9.820572,0.084609985,0.02027893,0.02027893
0.5830841,0.35585022,9.887543,0.08338928,0.007751465,0.033721924
0.7737427,0.33673096,10.193741,0.08615112,0.006225586,0.06303406
0.5637665,0.32957458,9.681824,0.11820984,0.39260864,0.06272888
0.04244995,0.48718262,9.399567,0.10417175,0.45277405,0.039520264
0.20899963,0.5826874,9.7942505,0.061706543,0.06640625,0.05204773
0.5516968,0.6113434,9.985626,0.07118225,-0.05455017,0.054489136
0.3151703,0.47521973,9.866028,0.11668396,0.042266846,0.021194458
0.07382202,0.47521973,9.770355,0.12461853,0.10397339,0.008972168
0.12451172,0.542099,9.555054,0.09408569,0.20048523,0.016906738
0.20173645,0.575531,9.803833,0.026885986,0.11129761,0.016906738
0.3851776,0.7522278,9.815796,-0.026565552,0.078308105,0.01234436
0.45516968,0.64479065,9.691391,-0.036636353,0.13298035,-0.01789856
0.23071289,0.52059937,9.839706,-0.07054138,0.1418457,-0.045394897
0.052093506,0.49673462,9.736847,-0.07237244,0.17575073,-0.01789856
0.469635,0.604187,9.9066925,-0.07481384,0.09754944,0.008361816
-0.070999146,0.46569824,9.89473,-0.053131104,0.077697754,-0.07714844
-0.18925476,0.34869385,9.385208,-0.013427734,0.09877014,-0.05607605
0.13658142,0.40838623,9.832535,-0.08001709,-0.062179565,0.009277344
-0.022720337,0.4346466,9.660309,-0.07298279,-0.09762573,0.003479004
0.33448792,0.29852295,10.050217,-0.081832886,-0.16177368,0.027618408
0.2162323,0.60894775,9.880371,-0.07696533,-0.023117065,0.003479004
0.17277527,0.54447937,9.9114685,-0.04763794,-0.041122437,-0.011169434
0.21139526,0.489563,9.822952,-0.00579834,-0.0206604,-0.04019165
0.13658142,0.45613098,9.79187,0.018341064,-1.9836426E-4,-0.07929993
0.018310547,0.34628296,9.827744,0.015274048,-0.01852417,-0.055770874
0.32965088,0.32000732,9.901901,3.2043457E-4,-0.041732788,0.02027893
0.3755188,0.4059906,9.861252,-0.014343262,0.030960083,0.047454834
0.26690674,0.480011,9.79187,-0.004562378,0.046218872,0.03982544
0.189682,0.542099,9.677032,0.011306763,0.028808594,0.019058228
0.21139526,0.522995,9.834915,0.011001587,-0.04663086,-0.0029296875
0.24035645,0.513443,9.849274,0.0076446533,-0.05517578,-0.011795044
0.22103882,0.50149536,9.880371,9.3078613E-4,-0.03288269,-0.022476196
0.27656555,0.489563,9.818192,-0.0048675537,-8.087158E-4,-0.018508911
0.21380615,0.3821106,9.801437,-0.014953613,0.0211792,-0.024612427
0.13658142,0.3271942,9.803833,-0.027160645,0.06210327,-0.024307251
0.1800232,0.3391266,9.782288,-0.024414062,0.051727295,-0.011184692
0.11244202,0.4728546,9.866028,-0.023803711,0.014465332,-0.0032348633
0.037612915,0.522995,9.818192,3.2043457E-4,-0.14497375,-0.006286621
0.097961426,0.60894775,9.863632,0.015289307,4.119873E-4,0.0135650635
0.12934875,0.59225464,9.854065,0.026885986,-0.021270752,0.012939453
0.17036438,0.513443,9.839706,0.037582397,0.008056641,0.008666992
0.19932556,0.4107666,9.79187,0.019561768,0.052642822,0.024246216
0.24035645,0.38450623,9.796646,0.0012359619,0.058135986,0.03768921
0.21380615,0.27226257,9.765564,0.0030670166,0.053253174,0.033721924
0.18244934,0.26748657,9.760773,0.0012359619,0.02973938,0.019058228
0.1776123,0.38687134,9.854065,-0.0043029785,-0.0011291504,8.544922E-4
0.18244934,0.532547,9.830139,-0.009796143,0.012008667,-0.013809204
0.100372314,0.58270264,9.8134,0.01373291,0.013534546,-0.045272827
0.03036499,0.5874634,9.825348,-0.0012359619,0.057510376,-0.03427124
0.06416321,0.546875,9.820572,-0.010406494,0.036132812,-0.015640259
0.114852905,0.570755,9.870819,-0.02659607,0.022384644,0.00390625
0.1269226,0.570755,9.856461,-0.039718628,0.04988098,0.023147583
0.10279846,0.4633026,9.758377,0.004562378,0.18426514,0.007873535
0.032791138,0.3821106,9.722488,-0.0055236816,-0.048477173,-0.009231567
0.0786438,0.2889862,9.698578,-0.0128479,0.1561737,0.005126953
0.22828674,0.27703857,9.822952,-0.046142578,-0.19111633,-0.017166138
0.100372314,0.3677826,10.011948,-0.033920288,-0.052749634,-0.060546875
0.069000244,0.23883057,9.954529,-0.033615112,0.13356018,-0.09169006
0.04244995,0.3080902,10.08609,-0.037582397,0.21847534,-0.1191864
-0.05168152,0.2460022,9.763168,-0.021392822,0.31254578,-0.15766907
-0.3630371,0.5397186,9.624405,-0.024459839,0.3131714,-0.17141724
-0.16513062,0.561203,9.885162,-0.1035614,0.21847534,-0.12895203
-9.918213E-4,0.5397186,9.95932,-0.12036133,0.16868591,-0.090164185
-0.09754944,0.3391266,9.782303,-0.057739258,0.19770813,-0.06970215
-0.11685181,0.32479858,9.897125,0.006088257,0.19007874,-0.058395386
-0.21339417,0.21733093,9.547882,0.07725525,0.16654968,-0.018692017
-0.39682007,0.10273743,9.509598,0.087646484,0.081329346,0.020401001
-0.2037201,0.31047058,9.806229,0.017700195,-0.033813477,0.0521698
-0.119262695,0.5731354,10.131546,-0.058044434,-0.03656006,0.082092285
-0.1796112,0.3033142,10.088486,-0.0546875,0.06636047,0.023147583
-0.3775177,0.33673096,9.708145,-0.02444458,0.1931305,-0.059310913
0.042434692,-0.03338623,10.272675,-0.055603027,0.23374939,-0.11703491
-0.3678589,-0.050094604,8.9953,-0.21260071,0.43380737,0.0927887
-0.7685089,0.580307,9.509598,-0.27674866,0.32385254,0.16914368
-0.5199127,0.9957886,10.114807,-0.26145935,0.056610107,0.14685059
-0.47647095,0.21496582,9.885147,-0.16830444,-0.010284424,-0.013809204
-0.5512848,-0.16711426,9.818176,-0.060791016,0.008651733,-0.10848999
-0.4161377,0.16958618,10.004761,0.030532837,-0.048171997,-0.0284729
-0.33888245,0.49195862,9.966492,0.14598083,-0.053970337,0.028945923
-0.49578857,0.45373535,9.720108,0.28128052,-0.058242798,0.0017547607
-0.68885803,-0.14801025,9.559845,0.32374573,-0.14529419,-0.033355713
-0.5271454,-0.26501465,9.299103,0.26081848,-0.27693176,0.03262329
-0.5126648,0.24362183,9.830139,0.07725525,-0.33312988,0.15968323
-0.26890564,0.47045898,10.04303,-0.1625061,-0.2518921,0.23573303
-0.05168152,0.651947,9.691391,-0.21748352,-0.041748047,0.24734497
-0.1313324,0.10273743,10.676941,-0.19854736,-0.042373657,0.24458313
-0.28097534,-0.28173828,8.653229,-0.039108276,-0.11413574,0.20884705
0.3513794,0.6543274,11.334763,0.06352234,-0.32214355,0.13157654
0.7471924,1.337265,11.227112,0.2128601,-0.07229614,0.010940552
-0.06375122,0.57792664,9.595718,0.5066986,0.6689911,-0.21661377
-0.9060669,-0.25068665,8.390091,0.50608826,0.828125,-0.24624634
-1.2922363,-0.19337463,8.579071,0.0015106201,0.5428467,-0.09291077
-0.903656,0.2507782,9.693787,-0.33935547,0.103027344,0.03933716
-0.37509155,0.5874634,10.181778,-0.24833679,-0.31817627,0.075683594
-0.008239746,0.7856598,10.330078,0.04763794,-0.43148804,0.030181885
0.0907135,0.6495514,10.385101,0.29533386,-0.2726593,-0.056259155
-0.3292389,0.42271423,9.913864,0.25715637,0.05996704,-0.050460815
-0.79745483,0.25317383,9.550262,-0.003692627,0.43963623,0.01889038
-0.93504333,0.3033142,9.306274,-0.13287354,0.55599976,0.019500732
-0.78297424,0.499115,9.272781,-0.05987549,0.17327881,0.0023956299
-0.44267273,0.503891,9.892334,0.07511902,-0.336792,2.593994E-4
-0.19891357,0.4203186,10.136322,0.07420349,-0.41436768,0.01828003
-0.35578918,0.16958618,10.038254,-0.060791016,-0.14956665,0.031097412
-0.11203003,0.7044678,9.753601,-0.13380432,0.115249634,0.04789734
-0.27130127,0.7307434,9.576569,-0.0388031,0.019042969,0.048828125
-0.5368042,0.3964386,10.06218,0.07847595,-0.25767517,0.020721436
-0.4837036,0.2603302,10.059784,0.063812256,-0.10771179,-0.015319824
-0.52957153,0.4012146,9.504822,-0.062332153,0.24964905,-0.02998352
-0.799881,0.5683594,9.531128,-0.099594116,0.15496826,-0.013183594
-0.6960907,0.613739,9.777512,-0.011627197,-0.108932495,-0.0024871826
-0.2616577,0.537323,9.787079,0.06840515,-0.26287842,0.008804321
-0.0034179688,0.518219,9.808609,0.033584595,-0.27142334,0.014007568
0.040039062,0.39881897,9.942566,-0.05316162,-0.17552185,-0.011657715
-0.19168091,0.23405457,10.076523,-0.07484436,-0.08052063,-0.060516357
-0.42819214,0.23405457,9.799042,-0.018951416,0.0068206787,-0.095947266
-0.404068,0.38450623,9.633987,0.03755188,-0.00630188,-0.07548523
-0.21580505,0.546875,9.844482,0.03541565,-0.1113739,-0.022338867
-0.18200684,0.38450623,9.9066925,-0.0043029785,-0.094573975,0.009414673
-0.5778351,0.11705017,9.8134,-0.041259766,-0.0017242432,2.593994E-4
-0.044448853,0.52059937,9.734451,-0.0864563,0.09875488,0.07936096
-0.23510742,0.61849976,10.098053,-0.019561768,-0.023712158,0.062561035
-0.34855652,0.35105896,10.1171875,0.021972656,0.1277771,0.055236816
-0.4740448,0.15525818,9.495239,0.004562378,0.31227112,0.047286987
-0.6647186,0.28659058,9.483276,-0.01864624,0.17115784,0.096450806
-0.442688,0.4250946,9.839706,0.0027313232,-0.04600525,0.15541077
-0.2761383,0.4107666,9.818192,0.03173828,-0.110458374,0.15907288
-0.08546448,0.44180298,9.842102,0.02166748,-0.10862732,0.13342285
-0.3413086,0.48718262,9.918655,-0.018035889,-0.041427612,0.1187439
-1.091919,-0.057250977,9.779892,-0.06752014,0.050201416,0.15570068
-1.4032593,-0.7234802,9.693787,-0.07575989,0.05935669,0.29193115
-1.2681122,-0.69721985,9.729675,-0.011932373,-0.06526184,0.43702698
-0.9181366,-0.27934265,9.95932,0.11543274,-0.22805786,0.53474426
-0.49577332,0.12661743,9.775116,0.16888428,-0.16543579,0.60224915
-0.08547974,0.4203186,9.483276,0.07481384,-0.11412048,0.65356445
0.8775177,1.3109894,9.681824,0.007003784,-0.18772888,0.65449524
2.943512,3.9209595,9.445023,0.003036499,-0.24882507,0.4703064
1.0609436,1.4662018,10.870697,-0.12738037,-0.30563354,-0.1552124
0.032806396,-0.25546265,9.822952,-0.045532227,-0.05822754,-0.26213074
-0.04927063,-0.009506226,10.045425,0.059539795,0.094192505,-0.121017456
-0.06616211,0.56837463,10.028671,-0.014678955,0.2722473,-0.06512451
-0.23271179,0.656723,9.846893,-0.06568909,0.40449524,-0.1280365
-0.38475037,0.480011,9.708145,0.0015106201,0.36021423,-0.1915741
-0.5368042,0.3677826,9.66748,0.07481384,0.29179382,-0.21295166
-0.69851685,0.3534546,9.58374,0.058624268,0.24385071,-0.19798279
-0.68644714,0.35585022,9.598099,0.008224487,0.15496826,-0.17416382
-0.36062622,0.46568298,9.873184,0.003036499,0.028808594,-0.15400696
-0.17720032,0.6017914,9.94017,0.021972656,0.037368774,-0.16499329
-0.27130127,0.45137024,9.873184,0.011291504,0.107925415,-0.1882019
-0.38233948,0.29852295,9.856461,-0.024459839,0.16046143,-0.19248962
-0.44992065,0.40838623,9.803818,-0.029342651,0.17848206,-0.1933899
-0.623703,0.52775574,9.679428,0.015563965,0.13664246,-0.17262268
-0.5657654,0.4585266,9.921036,0.0460968,-5.0354004E-4,-0.14634705
-0.40405273,0.532547,9.954529,0.073287964,0.017211914,-0.122528076
-0.53437805,0.546875,9.744034,0.068099976,0.1277771,-0.11244202
-0.6960907,0.31524658,9.679443,0.018615723,0.15649414,-0.093811035
-0.7757416,0.37495422,9.60289,0.0051727295,0.13418579,-0.065719604
-0.76849365,0.3868866,9.600494,0.009750366,0.06425476,-0.044952393
-0.6695404,0.42271423,9.76796,-0.0042877197,-0.015472412,-0.01928711
-0.7057495,0.503891,9.755997,-0.032089233,-0.03807068,0.014923096
-0.67196655,0.4346466,9.782303,-0.051635742,-0.06587219,0.054626465
-0.5199127,0.532547,9.94017,-0.033615112,-0.09732056,0.076309204
-0.51750183,0.6161194,9.944962,0.0027313232,-0.07685852,0.054016113
-0.5223236,0.47045898,9.918655,0.017684937,-0.023101807,0.019500732
-0.5392151,0.46090698,9.794266,0.021972656,0.033096313,-0.006149292
-0.6116333,0.50149536,9.72966,0.023803711,0.06149292,-0.008300781
-0.6043854,0.499115,9.669876,0.016174316,0.05050659,0.003326416
-0.6647339,0.4203186,9.698578,-0.0058288574,0.006210327,-0.00340271
-0.67196655,0.4298706,9.77272,-0.024459839,-0.03501892,-3.5095215E-4
-0.59954834,0.42269897,9.83252,-0.029342651,-0.062805176,0.02041626
-0.5995636,0.499115,9.815796,-0.0128479,-0.0637207,0.026824951
-0.55851746,0.5015106,9.842102,-0.005203247,-0.04663086,0.024383545
-0.6285095,0.47045898,9.806229,-0.0128479,-0.020965576,0.02468872
-0.68885803,0.4346466,9.736847,-0.040023804,0.006210327,0.072647095
-0.5271454,0.4155426,9.715317,-0.092559814,0.002243042,0.17497253
-0.48127747,0.42749023,9.7009735,-0.108444214,-0.09794617,0.22138977
-0.4740448,0.53492737,9.880371,-0.023239136,-0.17552185,0.15571594
-0.3533783,0.518219,9.942566,0.049468994,-0.17337036,0.05432129
-0.32200623,0.4441986,9.873199,-0.003692627,-0.07992554,0.011550903
-0.3678589,0.3916626,9.830139,-0.066604614,-0.0050811768,0.0072784424
-0.3775177,0.42747498,9.854065,-0.035446167,0.008346558,-0.0030975342
-0.39198303,0.46090698,9.892334,0.025939941,0.019348145,-0.004623413
-0.44508362,0.44180298,9.849274,0.029922485,0.046844482,-4.5776367E-5
-0.5319824,0.42507935,9.755981,-0.0061187744,0.07432556,0.0011749268
-0.5199127,0.4059906,9.739227,-0.012237549,0.050811768,-0.0030975342
-0.48854065,0.4346466,9.801437,0.014038086,-8.087158E-4,-0.001876831
-0.47888184,0.45613098,9.806213,0.03327942,-0.023406982,-0.0052337646
-0.4837036,0.4489746,9.8134,0.020141602,-0.004776001,-0.0067596436
-0.49095154,0.42271423,9.822952,-1.5258789E-5,0.0211792,0.0014801025
-0.47647095,0.41792297,9.7894745,-0.0030670166,0.019958496,-3.5095215E-4
-0.48129272,0.4298706,9.803833,0.003036499,0.011413574,-0.0070648193
-0.5054321,0.4346466,9.7894745,0.0012054443,0.009887695,0.00819397
-0.49336243,0.44657898,9.799042,-0.0045928955,-0.0056915283,0.023162842
-0.4861145,0.475235,9.825348,0.0027313232,-0.011505127,0.013092041
-0.4861145,0.48240662,9.820572,0.00944519,-0.007827759,0.009429932
-0.47647095,0.4298706,9.803833,9.0026855E-4,-0.0035552979,0.003616333
-0.44508362,0.4346466,9.830139,-0.0045928955,-0.0056915283,-0.0055389404
-0.5005951,0.44657898,9.79187,-3.2043457E-4,0.010192871,-0.0037078857
-0.5150757,0.39404297,9.791855,-0.0042877197,0.014160156,8.69751E-4
-0.53437805,0.4489746,9.7894745,9.0026855E-4,0.0043792725,0.0027008057
-0.5054321,0.484787,9.79187,0.0066986084,-0.007522583,0.007583618
-0.5005951,0.4633026,9.784683,-3.2043457E-4,-0.00843811,0.011245728
-0.46440125,0.43940735,9.827744,-0.0073242188,-0.01789856,0.006668091
-0.42578125,0.4155426,9.846878,-0.002746582,-0.021560669,5.645752E-4
-0.44508362,0.41792297,9.822952,-0.0018310547,-0.0041503906,0.003921509
-0.46681213,0.4441986,9.822952,-3.0517578E-4,-7.9345703E-4,0.003921509
-0.46681213,0.4489746,9.820572,0.0061035156,0.0043945312,-3.5095215E-4
-0.4981842,0.44180298,9.801437,9.1552734E-4,0.019363403,0.004837036
-0.5199127,0.45137024,9.787079,-0.0015258789,0.014175415,0.002090454
-0.5005951,0.47521973,9.79187,0.008239746,-0.003540039,0.0011749268
-0.5150757,0.44180298,9.796646,0.0,0.0022583008,0.008804321
-0.49095154,0.44180298,9.7942505,-0.011306763,-0.008743286,0.007583618
-0.49336243,0.45373535,9.796646,-0.0036621094,-0.016067505,0.0023956299
-0.46922302,0.44180298,9.827744,9.1552734E-4,-0.022476196,0.0017852783
-0.47647095,0.4441986,9.820572,-0.0064086914,-0.0020141602,0.0017852783
-0.45233154,0.40838623,9.801437,-0.0048828125,-0.0072021484,-0.004623413
-0.47647095,0.4250946,9.799042,-0.0024414062,-0.007507324,-0.0024871826
-0.45715332,0.4346466,9.7894745,-0.007019043,-0.022476196,-6.5612793E-4
-0.45233154,0.45613098,9.8134,-6.1035156E-4,-0.041107178,-3.5095215E-4
-0.44508362,0.46806335,9.854065,0.0064086914,-0.038970947,0.0023956299
-0.44267273,0.43940735,9.854065,-0.006729126,-0.0017089844,0.0060577393
-0.44508362,0.42269897,9.808609,-0.013442993,0.025161743,0.0023956299
-0.45715332,0.44657898,9.806229,0.0012207031,0.02027893,0.0011749268
-0.5005951,0.46090698,9.784683,0.003967285,0.02180481,0.006668091
-0.4837036,0.46090698,9.77034,-0.0012207031,-0.008117676,0.0014801025
-0.44992065,0.46090698,9.818192,0.0073394775,-0.038970947,-9.613037E-4
-0.42578125,0.4441986,9.827744,0.0051879883,-0.03164673,0.003616333
-0.4474945,0.3964386,9.801437,-0.010070801,-0.012084961,0.0027008057
-0.4474945,0.42507935,9.815796,-0.0045776367,-0.02217102,-0.0021820068
-0.44026184,0.4489746,9.815796,0.010375977,-0.030426025,-0.0040130615
-0.4837036,0.4250946,9.799042,9.1552734E-4,-0.010864258,-3.5095215E-4
-0.46199036,0.4346466,9.79187,-0.003967285,-0.023086548,-4.5776367E-5
-0.41371155,0.4489746,9.825348,0.00579834,-0.031951904,5.645752E-4
-0.41130066,0.42507935,9.837311,-0.0015258789,-0.0124053955,-4.5776367E-5
-0.42337036,0.4298706,9.806213,-0.014053345,0.0053253174,-6.5612793E-4
-0.42819214,0.44180298,9.8134,-0.0021362305,-0.0026245117,-4.5776367E-5
-0.42578125,0.43225098,9.832535,0.002746582,-0.008117676,0.0023956299
-0.43544006,0.45135498,9.801437,-0.0036621094,-0.0068969727,0.0051574707
-0.425766,0.4346466,9.808609,-0.0048828125,-0.0056762695,0.0069732666
-0.40646362,0.43704224,9.822952,3.0517578E-4,-0.01423645,0.0051574707
-0.42095947,0.44657898,9.808609,9.1552734E-4,-0.010879517,0.0014801025
-0.42819214,0.45135498,9.815796,9.1552734E-4,-0.014831543,-4.5776367E-5
-0.4282074,0.44657898,9.8134,6.1035156E-4,-0.0053710938,0.002090454
-0.40888977,0.44180298,9.8134,-0.003967285,-0.005065918,-4.5776367E-5
-0.41853333,0.43702698,9.784683,-0.0048828125,-0.002319336,0.0045318604
-0.38233948,0.53492737,9.822952,-0.002746582,-0.014541626,0.003616333
-0.3895874,0.480011,9.827744,0.010375977,-0.03805542,-0.014099121
-0.42578125,0.3439026,9.818192,0.016494751,-0.04385376,-0.024780273
-0.404068,0.34629822,9.808609,-0.0018310547,-0.016983032,-0.009811401
-0.37750244,0.4155426,9.820587,-0.012527466,-0.0044555664,0.0033111572
-0.4016571,0.45135498,9.815796,0.0024414062,-0.0078125,0.00819397
-0.40646362,0.46090698,9.820572,0.008560181,-0.004760742,0.007598877
-0.40888977,0.44180298,9.803833,-0.0024414062,0.01020813,8.69751E-4
-0.37991333,0.41314697,9.801437,-0.0061035156,0.012649536,-0.0043182373
-0.3630371,0.4155426,9.827744,5.950928E-4,0.0016326904,-0.0070648193
-0.3678589,0.44657898,9.8134,0.0027313232,0.005004883,-0.006149292
-0.38475037,0.43940735,9.832535,-9.3078613E-4,0.010192871,-0.0043182373
-0.4016571,0.4298706,9.820572,0.0027313232,0.0025482178,-0.001876831
-0.42095947,0.46090698,9.8134,0.003036499,0.0074310303,0.0060577393
-0.43544006,0.4489746,9.7894745,-0.0015411377,0.007736206,0.0045318604
-0.4474945,0.44657898,9.7894745,-0.002456665,0.0043792725,-3.5095215E-4
-0.41853333,0.45135498,9.811005,-0.0021514893,-0.0035552979,-0.0027923584
-0.41371155,0.44180298,9.8134,-0.0042877197,-1.9836426E-4,-0.0043182373
-0.3895874,0.4537506,9.815796,-9.3078613E-4,-0.0050811768,2.593994E-4
-0.37026978,0.45373535,9.830139,0.003036499,-0.003250122,0.006668091
-0.3775177,0.48957825,9.818192,-9.3078613E-4,0.0071258545,0.007583618
-0.40888977,0.4441986,9.7894745,-0.005203247,0.017822266,0.003616333
-0.42337036,0.3964386,9.796646,-0.0045928955,0.0013275146,-0.0015716553
-0.39198303,0.40838623,9.822952,-1.5258789E-5,-0.020050049,-0.001876831
-0.37750244,0.4203186,9.818192,0.0039520264,-0.02218628,-6.5612793E-4
-0.3871765,0.4298706,9.830139,0.0024261475,-0.017913818,-0.0012664795
-0.39198303,0.43940735,9.839706,0.0033416748,-0.0096588135,5.645752E-4
-0.41612244,0.43225098,9.827744,0.0015106201,0.010482788,0.0054473877
-0.4282074,0.42747498,9.799042,-0.0070495605,0.026062012,0.0057525635
-0.43785095,0.43225098,9.796646,-0.0073394775,0.016601562,0.0033111572
-0.40646362,0.4298706,9.79187,-9.3078613E-4,-0.0038604736,-0.0027923584
-0.3895874,0.45613098,9.818192,0.004562378,-0.016998291,-0.0030975342
-0.3775177,0.46569824,9.839706,0.004562378,-0.010269165,5.645752E-4
-0.3630371,0.4441986,9.837311,-0.003982544,0.0071258545,0.004837036
-0.40646362,0.4441986,9.8134,-0.010101318,0.026992798,0.0084991455
-0.42337036,0.41792297,9.796646,-0.00579834,0.027618408,0.004547119
-0.42578125,0.43702698,9.7894745,0.0015258789,0.011734009,0.003326416
-0.41130066,0.4346466,9.806213,0.0030517578,0.0025634766,0.0027160645
-0.3871765,0.4441986,9.827744,6.1035156E-4,-0.0038452148,0.003326416
-0.404068,0.43704224,9.815796,-3.0517578E-4,0.0050201416,2.593994E-4
-0.3895874,0.41792297,9.873184,-0.0033569336,0.01600647,0.0030059814
-0.3678589,0.4203186,9.921036,-6.1035156E-4,0.032196045,0.0045318604
-0.40405273,0.480011,9.892334,0.0073242188,0.074645996,0.012481689
-0.51750183,0.49194336,9.763168,0.013137817,0.10580444,0.020721436
-0.5440521,0.4633026,9.710541,0.013748169,0.09510803,0.023468018
-0.53437805,0.47045898,9.708145,3.0517578E-4,0.06272888,0.02468872
-0.5657654,0.39881897,9.732056,-0.020767212,0.032196045,0.014312744
-0.50782776,0.39404297,9.77272,-0.017410278,-0.029190063,-0.0021820068
-0.48854065,0.41314697,9.822952,-9.1552734E-4,-0.074401855,-0.018981934
-0.4716339,0.4298706,9.854065,0.0030517578,-0.072265625,-0.019897461
-0.43544006,0.43704224,9.849274,0.0,-0.05088806,-0.015319824
-0.44026184,0.4394226,9.834915,-0.0021362305,-0.021865845,-0.013183594
-0.41130066,0.4346466,9.808609,-0.008239746,4.272461E-4,-0.00340271
-0.43301392,0.4346466,9.779892,-0.0073242188,0.0028839111,-6.5612793E-4
-0.44267273,0.46090698,9.799042,0.002746582,-0.018508911,-0.0040130615
-0.42337036,0.45613098,9.8134,0.007019043,-0.044769287,-0.012573242
-0.42578125,0.44657898,9.822952,9.1552734E-4,-0.04171753,-0.015014648
-0.42337036,0.45373535,9.832535,-0.0015258789,-0.034088135,-0.0137786865
-0.42819214,0.4585266,9.815796,6.1035156E-4,-0.01637268,-0.0076904297
-0.44024658,0.43940735,9.825348,-0.0036621094,0.0016479492,5.645752E-4
-0.4161377,0.42271423,9.822952,-0.0048828125,0.007461548,0.002090454
-0.43060303,0.41792297,9.808609,0.0063934326,1.2207031E-4,-6.5612793E-4
-0.43301392,0.42747498,9.794266,0.027175903,-0.011184692,-4.5776367E-5
-0.45715332,0.4728546,9.794266,0.038467407,-0.026138306,-0.004928589
-0.44026184,0.4585266,9.796646,0.02319336,-0.029800415,-0.011642456
-0.3871765,0.43940735,9.846878,-0.00491333,-0.03164673,-0.022338867
-0.35095215,0.43940735,9.844498,-0.021087646,-0.037750244,0.0042266846
-0.41371155,0.4298706,9.834915,-0.012237549,0.018447876,-0.0024871826
-0.38957214,0.46090698,9.820572,-3.2043457E-4,0.012039185,-0.005844116
-0.3871765,0.44657898,9.815796,-0.012237549,0.016921997,0.0045318604
-0.3678589,0.44180298,9.830139,-0.021087646,0.023025513,0.00819397
-0.38233948,0.42507935,9.825348,-0.009796143,0.022109985,0.01675415
-0.41371155,0.43225098,9.7942505,0.004562378,0.015701294,0.01828003
-0.5005951,0.40838623,9.944962,0.0054779053,-1.8310547E-4,0.0057678223
-0.5440521,0.3916626,10.385101,0.008834839,-4.8828125E-4,0.0027008057
-0.37268066,0.19824219,10.437729,-0.019866943,-0.13304138,-0.0070648193
-0.23510742,0.13615417,10.074127,-0.1478424,-0.3605957,-0.008300781
-0.12651062,0.26750183,9.839706,-0.18449402,-0.5802002,0.028366089
-0.10235596,0.480011,9.547882,-0.05255127,-0.57440186,0.03111267
-0.010665894,0.656723,9.16275,0.0925293,-0.44856262,0.0030059814
0.100372314,0.604187,9.201019,0.08030701,-0.29858398,-0.03364563
0.083480835,0.5253906,9.26561,0.0063934326,-0.07501221,-0.018981934
-0.008239746,0.43704224,9.01445,0.0039520264,0.1088562,0.031723022
0.003829956,0.31047058,8.799149,0.016784668,0.18795776,0.071121216
0.020721436,0.18630981,9.074234,0.014038086,0.35351562,0.09953308
-0.27372742,0.60894775,10.815689,0.12031555,0.5890045,0.19114685
-0.4716339,0.8596802,12.528412,0.26020813,0.48057556,0.33776855
-0.35820007,-0.2172699,11.440018,-0.024139404,-0.14160156,0.26538086
0.032791138,-0.11457825,10.715225,-0.50183105,-0.7149048,0.040283203
0.31759644,0.57792664,9.674652,-0.40867615,-0.90182495,-0.014099121
0.066589355,0.9217682,8.823059,0.024429321,-0.5288849,-0.07121277
-0.34371948,0.7593994,8.339859,0.34239197,0.007751465,-0.16558838
-0.38475037,0.3534546,8.004974,0.29107666,0.21972656,-0.14176941
0.023132324,0.2555542,8.052811,-0.021987915,0.26249695,-0.017150879
0.097961426,0.26750183,9.275162,-0.17593384,0.50531006,0.0592041
0.06416321,0.50627136,11.5907135,0.064437866,0.6363373,0.19390869
0.17036438,0.46328735,12.191132,0.29351807,0.21606445,0.347229
0.023132324,0.06929016,11.49025,-0.137146,-0.288208,0.17436218
0.10762024,0.038253784,9.631592,-0.4312744,-0.25064087,-0.13656616
0.26690674,0.83102417,9.528732,-0.24404907,-0.5233917,-0.16864014
-0.102371216,0.87879944,8.97377,0.22784424,-0.2527771,-0.1368866
-0.40888977,0.43704224,8.485779,0.35398865,0.0135650635,-0.13748169
-0.10235596,0.29136658,8.416428,0.11331177,0.20658875,-0.031814575
-0.121673584,0.19348145,9.509598,-0.097732544,0.55662537,0.059509277
-0.15306091,0.3271942,11.346725,0.04031372,0.72798157,0.20458984
0.035202026,0.3319702,11.428055,0.20127869,0.2771454,0.3713684
-0.17236328,0.16003418,10.487961,-0.14691162,-0.26193237,0.245224
-0.15788269,0.3916626,9.691391,-0.41966248,-0.34013367,-0.015625
-0.2447815,0.93370056,9.315842,-0.189682,-0.35357666,-0.11154175
-0.50541687,0.7378998,9.071838,0.2449646,-0.2775116,-0.139328
-0.4474945,0.29852295,8.897217,0.33840942,-0.15046692,-0.13414001
-0.04927063,0.2268982,9.150787,0.042144775,0.10702515,-0.05593872
0.1776123,0.2412262,9.923431,-0.16462708,0.4222412,0.020111084
0.17520142,0.25793457,10.516678,-0.015579224,0.45368958,0.13128662
-0.0034179688,0.3677826,10.660202,0.123687744,0.09970093,0.22872925
-0.21339417,0.518219,10.339661,-0.052841187,-0.13702393,0.14411926
-0.21098328,0.570755,10.167435,-0.22267151,-0.21307373,0.0042266846
-0.05168152,0.489563,9.904297,-0.09223938,-0.36151123,-0.042800903
-0.013061523,0.47763062,9.693787,0.06964111,-0.44612122,-0.044631958
-0.054092407,0.4298706,9.45697,0.03024292,-0.25888062,-0.04800415
-0.070999146,0.2746582,9.3780365,-0.061706543,0.009902954,-0.04219055
-0.087875366,0.2651062,9.349335,-0.021377563,0.1430664,0.002380371
-0.039611816,0.3391266,9.354111,0.053756714,0.13267517,0.054016113
-0.04685974,0.3534546,9.547882,0.025344849,0.12504578,0.053100586
-0.04928589,0.4441986,10.100449,0.0024414062,0.12994385,0.042099
0.06416321,0.5015106,10.413818,0.057724,0.051742554,0.056152344
0.10519409,0.43225098,10.3276825,0.014053345,-0.048446655,0.037216187
0.0907135,0.39883423,10.009552,-0.10354614,-0.010864258,-0.009521484
-0.044448853,0.4489746,9.732056,-0.07727051,0.06213379,-0.018066406
-0.16270447,0.4298706,9.672256,0.067489624,0.0599823,0.0023956299
-0.20855713,0.36062622,9.741638,0.12889099,0.05204773,0.021026611
-0.14822388,0.2698822,9.842102,0.03390503,0.09480286,0.029876709
-0.05168152,0.4585266,9.94017,-0.062927246,0.11129761,0.037826538
-0.058929443,0.46568298,9.918655,-0.04031372,0.060287476,0.024383545
-0.13615417,0.3725586,9.811005,0.016189575,0.022109985,-0.011352539
-0.22062683,0.15763855,9.717712,0.014663696,-0.009353638,-0.04524231
-0.1313324,0.5253906,9.782288,-6.1035156E-4,-0.043563843,-0.024795532
-0.05168152,0.45613098,9.882767,0.004272461,-0.04875183,-0.020202637
-0.0034179688,0.35585022,9.887543,9.1552734E-4,-0.0124053955,-0.02998352
-0.039611816,0.39404297,9.863632,-0.011306763,0.01876831,-0.016525269
-0.10235596,0.40838623,9.822952,-0.0076446533,0.032821655,-6.4086914E-4
-0.11203003,0.43704224,9.820572,0.010696411,0.0041046143,0.0014953613
-0.14822388,0.45613098,9.818176,0.017089844,-0.013305664,0.0014953613
-0.17236328,0.43704224,9.820572,0.00579834,-0.006576538,0.009124756
-0.18443298,0.4059906,9.806213,6.1035156E-4,-0.0032196045,0.006072998
-0.13858032,0.37495422,9.832535,0.0033569336,-0.01361084,0.0030212402
-0.12651062,0.3725586,9.830139,-0.003967285,-0.005050659,8.8500977E-4
-0.121673584,0.3821106,9.815796,-0.009460449,-0.0013885498,-0.0055236816
-0.11442566,0.38926697,9.825348,3.0517578E-4,-0.012680054,-0.009506226
-0.0806427,0.37971497,9.820572,6.1035156E-4,-0.017578125,-0.009506226
-0.14581299,0.37971497,10.026291,-0.009780884,-0.011474609,-0.0055236816
-0.104782104,0.34629822,10.260712,0.002746582,-0.0019989014,0.0079193115
0.04727173,0.29136658,10.449692,-0.018325806,-0.08935547,8.8500977E-4
0.1269226,0.21734619,10.401855,-0.08552551,-0.20695496,-0.016525269
0.1776123,0.2937622,10.215271,-0.090408325,-0.41342163,-0.019577026
0.17277527,0.4203186,9.7942505,-0.019851685,-0.5276489,-0.025375366
0.035202026,0.43940735,9.401947,0.028396606,-0.47787476,-0.007659912
-0.022720337,0.585083,9.064667,0.019241333,-0.26008606,0.010650635
-0.09030151,0.57792664,8.906799,0.016494751,0.01663208,-0.03881836
-0.0806427,0.42271423,9.1770935,0.053756714,0.12445068,-0.05531311
0.025543213,0.32957458,9.7009735,0.059249878,0.08566284,-0.020187378
0.27415466,0.31285095,10.394684,-0.015274048,7.324219E-4,0.010040283
0.48654175,0.21496582,10.676941,-0.06413269,-0.059417725,0.012802124
0.5758362,0.29615784,10.365982,-0.045211792,-0.15013123,0.013702393
0.56617737,0.5110626,9.990402,-0.024429321,-0.19992065,-0.0018615723
0.46481323,0.5540314,9.502426,-0.01222229,-0.074401855,-0.058380127
0.24519348,0.37493896,9.220169,0.02230835,0.12962341,-0.1063385
0.13658142,0.28419495,9.28952,0.06474304,0.22615051,-0.073349
0.117263794,0.31047058,9.662704,0.059555054,0.21911621,0.014312744
0.22103882,0.30569458,10.009552,0.017105103,0.14367676,0.066848755
0.3368988,0.32479858,10.176987,-0.018325806,0.028533936,0.08119202
0.35862732,0.44657898,10.04303,-0.0143585205,-0.049362183,0.06990051
0.30070496,0.55644226,9.732056,0.0030517578,-0.028884888,0.027130127
0.1655426,0.537323,9.363693,0.01586914,0.040740967,-0.028152466
0.09555054,0.484787,9.346939,0.03390503,0.06976318,-0.05319214
0.12451172,0.42749023,9.744019,0.053756714,0.12535095,-0.030288696
0.1269226,0.2603302,10.148285,0.0736084,0.19529724,0.009719849
0.14865112,0.21017456,10.344437,0.035736084,0.084732056,0.058288574
0.2041626,0.3582306,10.157867,-0.03970337,-0.03591919,0.080581665
0.15589905,0.49673462,9.79187,-0.044296265,-0.04171753,0.07325745
-0.0034179688,0.5826874,9.540695,0.032989502,-0.021560669,0.025909424
-0.058929443,0.546875,9.650726,0.09866333,-0.0010986328,-0.032424927
-0.04927063,0.3534546,9.801437,0.0836792,0.023651123,-0.0473938
0.042434692,0.27703857,9.925812,-6.1035156E-4,0.008361816,-0.021728516
0.09312439,0.3868866,9.932999,-0.046417236,-0.031951904,-0.00982666
0.11967468,0.5253906,9.815796,-0.014968872,-0.021255493,-0.010421753
0.018295288,0.551651,9.619644,0.020767212,0.047470093,-0.011642456
-0.0034179688,0.54208374,9.562225,0.028396606,0.08380127,-0.023254395
0.04727173,0.503891,9.574173,0.037261963,0.108551025,-0.02998352
0.08106995,0.42747498,9.849274,0.040924072,0.13755798,-0.016845703
0.09555054,0.39404297,9.976059,0.029937744,0.13726807,0.041793823
0.09312439,0.3439026,10.004761,-0.019546509,0.07191467,0.07569885
0.08831787,0.3391266,9.930603,-0.046722412,0.05328369,0.089141846
0.08830261,0.3534546,10.028671,-0.012832642,0.08016968,0.10562134
0.0134887695,0.46806335,10.401855,0.06260681,0.092681885,0.12915039
-0.09030151,0.44895935,10.521454,0.07788086,0.05053711,0.14045715
-0.1313324,0.35821533,10.160248,-0.02168274,-0.055755615,0.11174011
-0.087875366,0.537323,9.677032,-0.07299805,-0.104003906,0.08792114
-0.121673584,0.7307434,9.275162,0.016799927,-0.0438385,0.07356262
-0.26649475,0.77848816,8.997696,0.108428955,0.06365967,0.055236816
-0.18925476,0.671051,8.858963,0.097732544,0.09451294,0.027435303
-0.044448853,0.39404297,8.677155,0.014968872,0.0887146,-0.001876831
0.11244202,-0.023834229,8.46904,-0.03543091,0.11773682,0.04118347
0.030380249,-0.102645874,8.990509,0.0036621094,0.25364685,0.18138123
0.066589355,1.1295166,11.30127,0.11819458,0.42469788,0.42481995
0.14622498,1.2799683,12.396851,0.10507202,0.3550415,0.6019745
-0.121673584,0.5731354,11.944748,-0.24038696,-0.07835388,0.46054077
-0.039611816,-0.02859497,9.153183,-0.3839264,-0.2888031,0.12731934
-0.0058288574,0.3630066,10.133926,-0.20617676,-0.4048767,-0.08280945
-0.288208,1.1295166,8.95224,0.14141846,-0.16296387,-0.03791809
-0.8891754,0.685379,8.997696,0.29656982,0.0569458,-0.07426453
-0.71780396,0.537323,8.78479,0.17012024,0.24937439,-0.06602478
-0.27372742,0.5588074,9.09816,-0.051620483,0.41461182,-0.056549072
-0.08306885,0.4346466,9.421082,-0.042144775,0.533432,-0.03883362
-0.2616577,0.4489746,10.559738,0.16950989,0.46897888,0.027450562
-0.442688,0.632843,11.483063,0.31214905,0.30465698,0.10441589
-0.38233948,0.4441986,10.60997,0.06750488,0.20111084,0.036605835
-0.3147583,0.5158386,10.035858,-0.21929932,0.06428528,-0.1381073
-0.25442505,0.7546234,9.550262,-0.059570312,0.032821655,-0.22026062
-0.37268066,0.7761078,9.480881,0.27671814,0.031600952,-0.22483826
-0.8360901,0.4585266,9.617249,0.46395874,0.029464722,-0.205307
-0.9277954,0.6901398,8.880478,0.28863525,0.17607117,-0.124053955
-0.5971527,0.9886322,9.043137,-0.06994629,0.14338684,-0.13414001
-0.4016571,1.0005646,9.480896,-0.1872406,-0.1391449,-0.2902069
-0.36302185,0.5731354,10.588425,-0.08491516,-0.45770264,-0.36595154
-0.64541626,0.23165894,10.631485,-0.03604126,-0.36058044,-0.29722595
-0.9253845,0.3486786,9.677048,-0.044906616,0.022140503,-0.20285034
-1.1063995,0.6495514,9.155579,5.950928E-4,0.10246277,-0.13780212
-0.5368042,0.6304474,9.263229,0.013442993,-0.1516571,0.015533447
-0.43060303,0.561203,9.662704,-0.08491516,-0.39172363,0.1068573
-0.06375122,0.47763062,10.413818,-0.17105103,-0.48641968,0.10533142
0.18000793,0.6495514,10.559723,-0.112091064,-0.32881165,0.04637146
-0.039611816,0.6065674,9.923416,0.036956787,-0.047210693,-0.0107421875
-0.22062683,0.76416016,9.610077,0.053756714,0.09146118,0.011871338
-0.10719299,0.60894775,9.681824,-0.03543091,0.07069397,0.10256958
0.07141113,0.38926697,9.968887,-0.049484253,-0.064315796,0.1474762
0.032791138,0.38926697,10.00238,0.0,-0.06919861,0.10990906
-0.056518555,0.532547,9.882767,0.0259552,0.027938843,0.022247314
-0.15304565,0.651947,9.8134,0.02229309,0.0975647,-0.03517151
-0.25926208,0.6925354,9.708145,0.026565552,0.06549072,-0.015319824
-0.3050995,0.599411,9.660309,0.027175903,-0.027359009,0.0084991455
-0.27372742,0.5588074,9.861237,-0.010696411,-0.08232117,-0.005859375
-0.3533783,0.60894775,10.00238,-0.037261963,-0.01727295,-0.03211975
-0.38716125,0.69729614,9.842102,0.00793457,0.06121826,-0.01991272
-0.3533783,0.64479065,9.700958,0.052841187,0.08779907,0.011550903
-0.33407593,0.54447937,9.626801,0.021377563,0.074661255,0.017669678
-0.25683594,0.561203,9.684219,-0.021987915,0.001663208,0.014923096
-0.20855713,0.6495514,9.899506,-0.016189575,-0.09240723,0.012176514
-0.13856506,0.647171,9.949738,-0.01008606,-0.08506775,0.012176514
-0.1313324,0.585083,9.918655,-0.009780884,-0.010559082,0.01675415
-0.17720032,0.537323,9.861237,0.010070801,0.039535522,0.0084991455
-0.20855713,0.5970154,9.72966,0.017700195,0.049316406,-0.005844116
-0.23751831,0.6495514,9.760773,0.004272461,0.025177002,-0.007369995
-0.24717712,0.666275,9.803818,-0.008255005,-0.013000488,-0.00340271
-0.23510742,0.6256714,9.822952,-0.011306763,-0.03224182,-0.0012664795
-0.25683594,0.594635,9.858856,-0.0033569336,-0.02520752,0.004547119
-0.30993652,0.5826874,9.856461,0.007949829,0.0077667236,0.0084991455
-0.31236267,0.628067,9.76796,0.011917114,0.045639038,0.01828003
-0.28097534,0.60658264,9.744019,0.012832642,0.042892456,0.040878296
-0.30752563,0.49673462,9.811005,0.011917114,0.018463135,0.059814453
-0.30992126,0.46806335,9.7942505,0.012832642,0.00440979,0.05432129
-0.19891357,0.62327576,9.77034,0.0018310547,0.005630493,0.021942139
-0.13374329,0.7689514,9.832535,-0.0036621094,-0.024291992,0.0042266846
-0.15545654,0.71881104,9.851669,-0.009170532,-0.05178833,0.010345459
-0.16752625,0.5826874,9.842102,-0.018325806,-0.02734375,0.00881958
-0.19891357,0.55404663,9.849274,-0.00642395,0.0037994385,0.006362915
-0.17477417,0.59461975,9.815796,0.012832642,0.013885498,0.0054473877
-0.15065002,0.6352234,9.825348,0.0064086914,0.013580322,2.593994E-4
-0.17959595,0.6256714,9.799042,-0.0021362305,-0.005355835,-0.00340271
-0.23271179,0.6304474,9.799042,0.0024414062,-0.027023315,-0.0043029785
-0.27856445,0.6543274,9.849274,0.002746582,-0.009613037,-6.4086914E-4
-0.29786682,0.599411,9.7942505,0.0015258789,0.023361206,0.010360718
-0.33888245,0.580307,9.751205,0.0073242188,0.0209198,0.027755737
-0.30752563,0.6304321,9.815796,0.0061035156,0.0010681152,0.03753662
-0.17959595,0.6686554,9.856461,0.002746582,-0.016342163,0.036621094
-0.09996033,0.64479065,9.796646,0.0024414062,-0.04107666,0.033569336
-0.17718506,0.5826874,9.863632,-0.010681152,-0.04321289,0.022567749
-0.2761383,0.561203,9.877975,-0.009155273,-0.01878357,0.00881958
-0.3533783,0.62327576,9.815796,0.0033569336,0.01878357,0.0033416748
-0.4282074,0.67581177,9.755997,0.0076293945,0.038024902,0.006072998
-0.4837036,0.680603,9.710541,0.002746582,0.03161621,0.011581421
-0.4547577,0.6495514,9.703354,-0.014053345,0.006866455,0.03173828
-0.35820007,0.6161194,9.734451,-0.032684326,-0.040161133,0.056777954
-0.23028564,0.522995,9.801437,-0.04978943,-0.08415222,0.065322876
-0.11203003,0.480011,9.861237,-0.058944702,-0.10247803,0.05708313
-0.01789856,0.48240662,9.930603,-0.05558777,-0.089645386,0.046081543
0.018310547,0.5158386,9.95932,-0.04673767,-0.049942017,0.035095215
0.025543213,0.45137024,9.861237,-0.036956787,-0.0010681152,0.021652222
-0.073394775,0.45135498,9.815796,-0.02810669,0.01512146,0.010040283
-0.14822388,0.52059937,9.796646,-0.03024292,0.01939392,0.004852295
-0.18684387,0.5922394,9.784683,-0.032684326,0.008087158,0.009429932
-0.2037201,0.60894775,9.77034,-0.03665161,-0.004425049,0.01890564
-0.18200684,0.556427,9.775116,-0.043670654,-0.020309448,0.028060913
-0.13615417,0.4585266,9.779907,-0.04397583,-0.04046631,0.0390625
-0.07583618,0.4585266,9.8134,-0.039398193,-0.060012817,0.04638672
-0.058929443,0.570755,9.849274,-0.03543091,-0.057891846,0.04333496
-0.10235596,0.604187,9.904297,-0.023834229,-0.036819458,0.045776367
-0.068573,0.518219,9.949753,-0.00579834,-0.010864258,0.0549469
-0.13615417,0.45137024,9.880371,-0.0021362305,0.018157959,0.04762268
-0.18200684,0.37493896,9.870804,-0.0012207031,0.029464722,0.023788452
-0.10235596,0.38926697,9.741623,0.0024414062,0.007461548,-0.011947632
-0.15065002,0.50149536,9.653122,-0.030853271,-0.028564453,-0.038208008
-0.19407654,0.4441986,9.870804,-0.059249878,-0.01940918,-0.03729248
-0.073394775,0.37254333,9.856461,-0.01802063,-0.020629883,-0.009811401
-0.0058288574,0.518219,9.703354,0.002746582,-0.04597473,0.011581421
-0.054092407,0.580307,9.873184,-0.036956787,-0.032546997,0.0030212402
-0.04685974,0.6399994,9.91626,-0.04826355,-0.003829956,-0.003692627
0.018295288,0.7307434,9.791855,-0.017715454,-0.014831543,0.004547119
0.0014190674,0.642395,9.7942505,-0.015579224,-0.028564453,5.79834E-4
-0.061340332,0.45613098,9.885162,-0.032989502,-0.029174805,-0.00491333
-0.11442566,0.3582306,9.913864,-0.024429321,-0.03010559,-0.0058288574
-0.15788269,0.41792297,9.866028,-0.020767212,-0.0056610107,-0.008285522
-0.38475037,-0.31755066,11.676834,-0.6977539,-0.15022278,-1.0301514
-0.09512329,-0.3318634,11.162537,-0.26037598,-0.05706787,-1.1095581
-0.056518555,-0.18861389,9.803833,0.31903076,0.007980347,-1.1318512
-0.20132446,0.3343506,8.509705,0.72862244,0.098083496,-1.0093689
-0.34614563,0.6543274,7.5480804,0.84439087,0.1616211,-0.87008667
-0.48127747,1.0913086,6.97876,0.64494324,0.15489197,-0.82702637
-0.5971527,1.5330658,7.2921295,0.27902222,0.044326782,-0.8581848
-0.326828,1.5569458,8.000198,-0.08230591,-0.096466064,-0.9250641
-0.008239746,1.2632446,8.921158,-0.36880493,-0.20397949,-1.0200653
0.059326172,1.0077362,10.045425,-0.53526306,-0.17037964,-1.0701599
0.059326172,0.7164154,10.899414,-0.54045105,-0.10624695,-1.0744324
0.1027832,0.5110626,11.282135,-0.37612915,-0.07539368,-1.0832825
0.035202026,0.46568298,11.021393,-0.12628174,-0.08119202,-1.0496826
0.11003113,0.537323,10.593216,0.08905029,-0.14533997,-0.9690552
0.40447998,0.6304474,9.87558,0.2216034,-0.22291565,-0.9082794
0.4817047,0.90267944,9.236893,0.24909973,-0.26812744,-0.8792572
0.49620056,1.0483398,9.107727,0.15348816,-0.29743958,-0.8374176
0.67962646,1.127121,9.2608185,0.004135132,-0.32279968,-0.8288574
0.7906494,1.0531006,9.349335,-0.12628174,-0.30081177,-0.86001587
0.70376587,0.9480438,9.567017,-0.24845886,-0.28125,-0.83833313
0.61927795,0.9122162,10.08609,-0.34436035,-0.29684448,-0.7653351
0.65548706,0.85014343,10.370758,-0.31199646,-0.32615662,-0.70332336
0.624115,0.7832794,10.308563,-0.15408325,-0.32341003,-0.6620941
0.4262085,0.8358154,10.028687,-0.009918213,-0.30569458,-0.61291504
0.28138733,0.74746704,9.7942505,0.04536438,-0.32859802,-0.5829773
0.27656555,0.7044678,9.545486,-0.01663208,-0.3460083,-0.5726013
0.48654175,0.8811798,9.873184,-0.15499878,-0.31913757,-0.5826874
0.7737427,1.0937042,10.720001,-0.11253357,-0.2647705,-0.6804199
1.278183,1.4900818,11.564423,0.22589111,-0.076309204,-0.892395
0.27656555,1.3468323,9.327789,0.53009033,-0.0017852783,-1.2158508
-0.3002777,0.80236816,8.7608795,0.5029144,-0.3334961,-1.2680817
0.43826294,1.6763458,9.153183,0.2692566,-0.26078796,-1.0228119
1.135788,1.7599335,9.660309,0.0756073,-0.12884521,-0.81388855
1.135788,1.7885895,9.868423,0.02796936,-0.061950684,-0.7442627
1.0464783,1.7551422,10.23201,0.15776062,-0.053100586,-0.57962036
0.99819946,1.8052979,10.016724,0.22802734,-0.05218506,-0.4675293
1.0271606,1.9437866,10.38031,0.23077393,-0.114486694,-0.4317932
0.54930115,1.5641174,10.193741,0.4189148,-0.20826721,-0.40734863
0.6651459,1.6524658,9.9114685,0.516037,-0.19085693,-0.4015503
0.5130768,1.7527618,9.459366,0.4971161,-0.17893982,-0.37254333
0.43585205,1.7790222,9.095764,0.41830444,-0.15939331,-0.38108826
0.33207703,1.8220062,9.067062,0.2863617,-0.13801575,-0.41712952
0.36827087,1.7694702,8.923523,0.18678284,-0.10014343,-0.49041748
0.2041626,1.9270782,8.825455,0.1568451,-0.20458984,-0.552124
0.25726318,1.9581299,8.770447,0.07987976,-0.27668762,-0.58480835
0.3610382,1.8411255,8.80632,-0.1565094,-0.35792542,-0.6165619
0.8365021,1.9414062,9.425873,-0.38835144,-0.4290924,-0.61595154
0.91615295,1.9127502,9.710541,-0.42622375,-0.4425354,-0.673996
0.9644165,1.7050018,9.633987,-0.39720154,-0.4880371,-0.7222595
0.95477295,1.542633,10.102844,-0.42774963,-0.484375,-0.67308044
1.2154236,1.3396606,10.863525,-0.38713074,-0.25590515,-0.59365845
0.94029236,1.2536926,10.901794,-0.19622803,0.08557129,-0.52249146
0.61686707,1.1319122,10.110016,-0.039230347,0.28929138,-0.35786438
0.21139526,1.232193,9.215378,-0.11804199,0.27127075,-0.17979431
0.13658142,1.365921,9.452194,-0.2689209,0.1946106,0.008041382
-0.17236328,1.337265,9.28714,-0.21485901,0.107559204,0.1118927
-0.10235596,1.3109894,8.689102,-0.12506104,-0.11845398,0.15556335
0.13899231,1.5760651,8.600601,-0.1611023,-0.34448242,0.18275452
0.45999146,1.7312775,8.875687,-0.11804199,-0.5448456,0.14762878
0.8727112,2.0154266,9.521561,0.060943604,-0.76353455,0.010482788
0.69892883,1.2011566,9.971268,0.27322388,-0.71772766,-0.14833069
1.7077789,1.170105,10.705643,0.34622192,-0.808136,-0.14894104
1.8984528,1.6381378,10.2966,0.35110474,-0.5100403,-0.28425598
1.6691589,1.6500854,9.440231,0.2081604,-0.2223053,-0.25584412
1.6667633,1.7169495,9.346939,-0.0639801,-0.1499176,-0.19018555
1.9032745,1.6190338,10.636276,-0.2606659,-0.21008301,-0.15261841
2.1615143,1.437561,11.329971,-0.08963013,0.052886963,-0.15048218
2.0649872,1.6142578,11.373032,0.36302185,0.48233032,-0.12634277
1.6522675,1.8100739,10.739136,0.86424255,0.69003296,-0.15353394
2.1229095,2.175415,9.490463,1.0896454,0.5825043,-0.2827301
1.8236237,1.5689087,9.028778,0.86302185,0.3943634,-0.5246277
-0.36543274,2.6697235,8.617355,0.5303955,0.4374237,-0.504776
-0.22303772,2.3091278,8.440338,0.27993774,0.32991028,-0.06312561
0.7158203,1.9891663,8.275284,-0.039245605,0.22149658,0.16870117
0.3031006,2.1539154,9.229721,-0.36421204,0.18331909,0.079208374
0.22103882,2.161087,9.820587,-0.40270996,0.18821716,0.1424408
0.64823914,2.0297546,10.110016,-0.25946045,0.32229614,0.13999939
0.40930176,2.1682434,10.057388,-0.092681885,0.40322876,0.08868408
0.78822327,2.452423,10.212875,0.12936401,0.28564453,0.03126526
0.86787415,2.366455,10.141113,0.3098755,0.3082428,-0.08143616
0.9378662,2.5407715,10.038254,0.42074585,0.33695984,-0.09030151
0.88235474,2.4930115,9.263214,0.43815613,0.39071655,-0.10954285
0.47930908,2.6458282,8.878082,0.4100647,0.3791046,-0.097335815
0.3031006,2.6840363,8.768066,0.30651855,0.3030548,-0.10404968
0.15106201,2.4404755,8.222656,0.023071289,0.2947998,-0.13153076
-0.21580505,2.194519,8.5121,-0.34649658,0.08680725,-0.06800842
0.32724,2.0464783,9.401962,-0.57466125,-0.12791443,-0.06678772
0.14381409,1.7217255,9.657913,-0.59298706,-0.16824341,-0.128479
-0.11444092,1.6811218,9.686615,-0.43263245,-0.24490356,-0.10557556
-0.21580505,1.5163727,9.736847,-0.23318481,-0.3267517,-0.08358765
-0.28338623,1.461441,9.380417,-0.1769867,-0.39639282,-0.09152222
0.13415527,1.6429291,9.189056,-0.29489136,-0.5372009,-0.090911865
0.6651306,1.6739502,9.442627,-0.46897888,-0.6538696,-0.1000824
0.98612976,1.5688934,9.686615,-0.5319061,-0.58943176,-0.13215637
0.9620056,1.6739502,9.83493,-0.34039307,-0.4113617,-0.17338562
0.69169617,1.8220062,9.4952545,-0.055419922,-0.22871399,-0.19293213
0.624115,1.9867706,9.1770935,-0.041366577,-0.14685059,-0.13703918
0.7544403,2.0010986,9.07663,-0.20019531,-0.14807129,-0.08694458
0.8365021,1.9223022,9.356506,-0.30984497,-0.16059875,-0.07991028
0.92097473,1.9414062,9.846878,-0.31137085,-0.1663971,-0.13153076
0.8364868,1.8172455,10.117203,-0.25212097,-0.22595215,-0.15719604
0.8606415,1.7288818,10.698471,-0.19042969,-0.23970032,-0.1113739
0.761673,1.5354614,11.00705,-0.0887146,-0.18197632,-0.08206177
0.93063354,1.6453094,10.841995,-0.0074768066,-0.15541077,-0.06587219
1.085083,1.5593414,10.258331,-0.012649536,-0.15449524,-0.11351013
1.0319977,1.5354614,9.758377,-0.1522522,-0.24459839,-0.12573242
1.0054474,1.380249,9.796646,-0.17300415,-0.34202576,-0.15473938
1.0247498,1.485321,9.811005,0.054840088,-0.29589844,-0.24424744
1.0151062,1.2059479,9.516785,0.20787048,-0.21923828,-0.28883362
0.95957947,1.2274323,9.480896,0.25123596,-0.1453247,-0.20513916
1.1912842,1.3109894,9.712936,0.19013977,-0.10133362,-0.12786865
0.9499359,1.2680054,10.224823,0.20266724,-0.043304443,-0.095184326
0.2620697,0.9098358,11.102737,0.32789612,0.028778076,-0.09793091
0.5396271,0.57792664,11.117096,0.4815216,0.090774536,-0.098236084
1.4543762,1.0960999,11.181671,0.6837311,0.09536743,0.0059051514
2.067398,2.2733154,10.600388,1.0475006,0.2783203,0.123809814
1.7801971,2.667328,8.954636,1.1483002,0.4209442,0.12623596
1.2154236,2.8679047,8.299194,0.8504944,0.3940735,0.10548401
0.77615356,2.4428558,7.973877,0.57192993,0.3363495,0.04560852
0.7858124,2.461975,7.2538605,0.34866333,0.20593262,0.05630493
0.8485565,2.5694122,6.806534,0.08416748,-0.005126953,0.08288574
0.9933624,2.4930115,7.306488,-0.23196411,-0.19541931,0.07859802
1.0006256,2.418991,8.091095,-0.50135803,-0.32156372,0.07432556
1.0874939,2.0703583,8.748917,-0.6607971,-0.42358398,0.1018219
1.5943451,1.8602142,9.409134,-0.6632385,-0.4602356,0.11891174
1.7029572,1.9270782,9.796646,-0.5346527,-0.4125824,0.08807373
1.7608795,2.1634827,10.210495,-0.4326172,-0.3450775,0.05630493
1.7753601,1.9509583,10.38031,-0.3868103,-0.27207947,0.039505005
1.7536469,1.8005219,10.452087,-0.32540894,-0.16731262,0.07463074
1.5991669,1.6118774,10.404251,-0.20935059,0.01411438,0.07035828
1.3047333,1.6166534,9.825348,-0.053878784,0.14453125,0.073410034
1.234726,1.6262054,9.234497,-0.08564758,0.14239502,0.14152527
0.8775177,1.6859131,8.897232,-0.3538208,-0.027130127,0.19038391
0.48171997,1.5426178,9.064682,-0.745697,-0.37471008,0.18458557
1.0247498,1.6047058,9.734451,-0.9692688,-0.7858124,0.16320801
2.0601501,1.3444366,10.746307,-0.8654175,-0.8246155,0.12013245
2.5235596,1.0029602,11.38739,-0.4039154,-0.44281006,0.13113403
2.5645905,0.91937256,10.818085,0.19200134,-0.061035156,0.008651733
1.920166,1.1987762,9.887543,0.48765564,0.03427124,0.0055999756
1.9467163,1.2799683,9.220154,0.36824036,0.010147095,0.08103943
1.8453522,1.3874054,9.11731,0.12510681,-0.07141113,0.05203247
1.8188019,1.3539886,9.229721,-0.007446289,-0.112335205,0.07066345
2.0915375,1.3468323,9.449799,-0.068237305,-0.068359375,0.11984253
1.9394684,1.0817566,9.720108,-0.08320618,-0.026809692,0.16778564
2.106018,1.3587646,9.803833,-0.19560242,-0.12120056,0.05722046
2.0118866,1.337265,10.04303,-0.18276978,-0.32339478,-0.104660034
1.9056854,1.4399414,9.739243,0.0074920654,-0.24183655,-0.10435486
2.1180878,1.1175842,9.574173,0.11805725,-0.08270264,-0.09764099
1.9732666,1.1342926,9.2895355,0.111953735,-0.015213013,-0.041748047
1.8984528,1.1319122,9.033569,0.048416138,-0.08576965,0.003768921
1.9756927,1.2131042,8.866135,-0.035568237,-0.11294556,0.060577393
2.0867157,1.1868286,8.7608795,-0.11804199,-0.07598877,0.07585144
2.2315063,1.2011566,8.837418,-0.19256592,-0.040252686,0.09112549
2.2604828,1.2441254,8.902008,-0.27197266,0.04862976,0.13845825
2.2122192,1.1390839,9.059891,-0.32695007,0.12742615,0.19161987
2.1687622,0.9146118,9.193832,-0.2970276,0.12620544,0.21360779
2.1711884,0.77612305,9.334976,-0.22096252,0.07336426,0.19619751
2.2339325,0.90267944,9.688995,-0.16262817,0.031204224,0.19528198
2.4173584,0.81433105,10.389893,-0.08444214,0.041000366,0.19252014
2.5283813,0.74746704,10.868317,0.08201599,0.078567505,0.1289978
2.248413,1.0077362,11.059677,0.27964783,0.15827942,0.04194641
1.8815613,0.9814606,10.952042,0.43144226,0.33602905,-0.0066070557
1.5967712,0.8286438,10.593216,0.4690094,0.3360443,-0.002029419
1.4905701,0.8334198,10.138718,0.42715454,0.32963562,0.016296387
1.5677948,0.9480438,9.842102,0.35232544,0.27464294,0.046524048
1.6401978,1.1056366,9.418701,0.28727722,0.2657776,0.06271362
1.7246857,1.308609,8.9665985,0.22679138,0.29267883,0.06149292
1.6691589,1.447113,8.808716,0.15777588,0.32321167,0.04714966
1.5798645,1.499649,8.933105,0.08659363,0.33328247,0.04194641
1.386795,1.470993,9.083801,0.0044403076,0.36749268,0.056915283
1.1840515,1.351593,9.07901,-0.0053253174,0.2728119,0.058746338
1.0826874,1.337265,9.007263,-0.011444092,0.2263794,0.09020996
1.0923309,1.418457,9.043137,-0.076812744,0.15063477,0.14059448
1.2516327,1.4232178,9.39238,-0.23654175,0.10940552,0.16015625
1.5291901,1.337265,9.971268,-0.43997192,-0.072021484,0.14976501
1.8284607,1.2250366,10.593216,-0.53404236,0.18882751,0.1302185
1.9539642,1.0053558,10.822845,-0.396286,0.059631348,0.09844971
1.7608795,0.9122162,10.894623,-0.07467651,0.17324829,0.022705078
1.7632904,0.90267944,10.354019,0.17913818,0.35221863,0.09387207
1.4712524,0.9623718,9.954529,0.2952118,0.35740662,0.10151672
1.0730286,1.0865326,9.62442,0.32881165,0.254776,0.06576538
0.8871918,1.0531006,9.337372,0.29612732,0.2605896,0.016906738
1.0754395,1.1295166,9.11969,0.25550842,0.32809448,-0.021270752
0.92097473,1.3587646,8.600601,0.1174469,0.3821411,0.041641235
0.7351227,1.6835175,8.287231,-0.09542847,0.43559265,0.08959961
0.6772156,1.4972534,8.098267,-0.30496216,0.3170929,0.07951355
0.469635,1.3109894,8.7656555,-0.40637207,0.119781494,0.05996704
0.8582306,1.3062134,9.521545,-0.38194275,-0.05706787,0.06637573
0.9644165,1.2274323,9.932999,-0.21913147,-0.12976074,0.034317017
0.585495,0.8453522,10.241577,-0.009918213,-0.058288574,0.091430664
0.63134766,1.1175842,10.406647,0.13670349,-0.012176514,0.20169067
0.6506653,1.2656403,10.641052,0.14463806,0.056549072,0.22642517
0.85580444,1.3683167,10.574081,0.093322754,0.08648682,0.18611145
0.7544403,1.2536926,10.574066,0.11378479,0.0962677,0.14793396
0.75927734,1.2632446,10.289413,0.20114136,0.088012695,0.14396667
0.5227356,1.2489166,10.045425,0.27627563,0.05380249,0.115859985
0.44792175,1.3062286,9.641159,0.28208923,0.020507812,0.10395813
0.5589447,1.303833,9.241684,0.23504639,0.008895874,0.07463074
0.5372162,1.356369,9.009659,0.15318298,0.022338867,0.07524109
0.41654968,1.351593,9.1436,0.06248474,0.02267456,0.09814453
0.42378235,1.232193,9.112518,-0.033111572,0.03642273,0.0859375
0.5516968,1.141449,9.401947,-0.12197876,-0.020385742,0.07646179
1.1140442,1.2393646,9.983231,-0.11099243,-0.12911987,0.07371521
1.2661133,1.3205566,9.9617,-0.014785767,-0.067733765,0.05630493
1.2106018,1.3587646,9.976044,0.06034851,-0.035964966,0.07829285
1.1743927,1.475769,10.004761,0.059127808,-0.06008911,0.067611694
1.1405945,1.4256134,9.923416,-0.010513306,-0.0060272217,0.022094727
1.1599121,1.5282898,9.909088,-0.16690063,0.09996033,0.02911377
0.80513,1.2035522,9.689011,-0.29119873,0.12774658,0.032485962
1.0706177,1.141449,9.95932,-0.29579163,0.05505371,0.07646179
1.1454315,1.2727966,9.787079,-0.22981262,0.07307434,0.09112549
0.8582306,1.2584686,9.574173,-0.17849731,0.069107056,0.0801239
0.83891296,1.193985,9.578964,-0.19438171,0.053222656,0.042251587
0.7858124,0.99102783,9.270401,-0.28845215,0.07582092,1.0681152E-4
0.7906494,0.90267944,9.3828125,-0.33854675,0.0019073486,0.0031585693
0.81718445,0.73313904,9.622009,-0.2154541,-0.086364746,0.012023926
0.8196106,0.9504242,9.947342,0.020950317,-0.13493347,0.0010223389
0.77615356,0.9480438,9.724884,0.23536682,-0.15570068,-0.09428406
0.6747894,0.8071594,9.777512,0.32669067,-0.15905762,-0.1025238
0.7906494,0.9504242,9.674652,0.28607178,-0.09399414,-0.036239624
0.83891296,1.1748962,9.636368,0.14160156,-0.056732178,-0.018829346
0.85580444,1.1963806,9.648346,-0.02609253,-0.067733765,-0.02798462
0.9113159,1.208313,9.77272,-0.11924744,-0.10560608,-0.038986206
0.98612976,1.1605682,9.856461,-0.12260437,-0.09246826,-0.06770325
0.9644165,1.0674286,9.954529,-0.047470093,-0.0622406,-0.098861694
0.9957886,1.1056366,9.837311,0.067993164,-0.0090789795,-0.1113739
0.88960266,1.1056366,9.497635,0.13945007,0.008331299,-0.11381531
0.85580444,1.2011566,9.533524,0.09945679,-0.010620117,-0.085113525
0.8606415,1.2489166,9.648346,0.008117676,-0.017333984,-0.06892395
0.7930603,1.1175842,9.799042,-0.039520264,-0.044509888,-0.072280884
0.92581177,0.9599762,10.114807,-0.008682251,-0.07598877,-0.0695343
1.097168,0.9504242,10.026291,0.08081055,-0.08332825,-0.079315186
1.1237183,1.2250366,9.777512,0.14923096,-0.19023132,-0.084198
1.0633698,1.3157806,9.877975,0.10493469,-0.29681396,-0.08938599
1.01268,1.2799683,9.775116,0.002319336,-0.36065674,-0.06098938
1.0271606,1.2417603,9.76796,-0.08900452,-0.39456177,-0.01638794
0.8461609,1.4757538,9.473709,-0.12748718,-0.57598877,0.0025482178
0.72789,1.9509583,9.090988,-0.21575928,-1.0937042,0.014160156
0.30793762,1.7527618,9.150787,-0.5046997,-1.6908264,0.16046143
1.8525848,1.0292358,9.081406,-0.7276764,-1.9180603,0.52545166
2.7745667,0.3319702,9.339752,-0.8141022,-1.7451935,0.6225891
3.4551697,0.30091858,9.729675,-0.8535156,-1.4528961,0.55844116
4.1961365,0.011978149,10.437729,-0.7979126,-1.0591888,0.4845276
4.12854,-0.33425903,10.406647,-0.6256561,-0.53964233,0.4429779
3.6337738,-0.4847107,9.636383,-0.32695007,-0.11141968,0.39839172
3.4720764,-0.5252991,9.882767,0.046310425,0.2639618,0.26309204
3.1462555,-0.09069824,9.643555,0.5151367,0.54800415,0.041030884
2.4004517,0.18869019,8.870911,0.79156494,0.46768188,-0.13214111
1.3602295,0.45613098,7.782501,0.63212585,0.23982239,-0.13673401
2.284607,0.8596802,8.49057,0.23506165,-0.0026855469,-0.009674072
2.8880005,0.6352234,9.598114,0.12205505,0.038848877,-0.013641357
2.9652252,0.56359863,10.074127,0.29278564,0.23587036,0.040420532
2.8276672,0.49194336,9.892334,0.48153687,0.3357544,0.043777466
2.9169617,0.73550415,10.241577,0.6156311,0.5709381,0.0211792
3.259674,0.9002838,10.193741,0.82577515,0.8030548,0.014160156
2.9097137,1.3205414,10.045425,1.0145416,0.9252472,0.04499817
2.649063,1.299057,8.904404,0.9907074,1.1152191,0.1302185
2.2025452,1.528305,7.9619293,0.669693,0.8620148,0.17329407
1.963623,1.4542694,7.6365967,0.17062378,0.46250916,0.18061829
1.7488098,1.3491974,7.7155304,-0.3501587,0.035812378,0.1742096
1.6691589,1.308609,8.480988,-0.6562042,-0.28337097,0.13969421
1.8646545,1.179657,9.442612,-0.6338959,-0.38934326,0.099975586
1.9949951,0.7164154,10.411423,-0.40512085,-0.3356018,0.015991211
2.2001495,0.70925903,11.014236,-0.13360596,-0.18409729,0.012939453
2.4342499,0.6782074,10.521454,0.07072449,-0.052459717,0.034317017
2.35701,0.95521545,10.074127,0.17243958,-0.16912842,-0.014862061
2.2966766,1.2680206,9.66748,0.18008423,-0.19296265,-0.14161682
2.255661,1.4256134,9.131638,0.12295532,-0.15293884,-0.30136108
2.0287933,1.4877167,8.672363,0.0053710938,-0.10682678,-0.35664368
1.6498718,1.394577,8.602997,-0.18734741,0.0037384033,-0.32060242
1.5147095,1.2513123,8.727386,-0.41337585,0.074905396,-0.20300293
1.8260498,1.2131042,9.239288,-0.60458374,-0.0075531006,0.03492737
2.427002,1.1080322,9.822952,-0.6552887,0.06422424,0.26675415
2.8349,1.0077362,10.282242,-0.56547546,0.14637756,0.45336914
2.9966125,0.8811798,10.495132,-0.42895508,0.07093811,0.5101776
2.9990234,0.9432678,10.727173,-0.29548645,-0.082092285,0.39533997
2.6104279,0.7570038,10.82048,-0.1076355,-0.23236084,0.18855286
2.212204,0.3773346,10.598007,0.15441895,-0.24946594,0.031570435
2.209793,0.3821106,10.007156,0.3963318,-0.24946594,-0.11993408
2.067398,0.40838623,9.2560425,0.51911926,-0.26350403,-0.22315979
2.0746307,0.565979,8.533615,0.48002625,-0.36186218,-0.28578186
2.219452,0.6591034,8.485779,0.26559448,-0.57048035,-0.36917114
2.6732025,0.7378998,8.820679,-0.04838562,-0.7231903,-0.43208313
2.8059387,0.9122162,9.201019,-0.2414093,-0.62942505,-0.5341034
3.228302,0.57792664,9.557449,-0.31747437,-0.6679077,-0.5851135
3.373108,1.0650482,10.361191,-0.36909485,-0.67523193,-0.615036
2.8445587,0.9002838,11.621811,-0.23654175,-0.303833,-0.7821045
1.2130127,0.87402344,12.585831,-0.023956299,0.41455078,-0.90000916
2.7359467,0.9384918,10.875488,0.05088806,1.6885223,-1.0209656
3.8678741,-0.02859497,7.9667053,0.120529175,1.7676239,-0.66452026
2.3763275,1.0435638,6.6725616,0.057006836,0.74961853,0.1360321
1.309555,0.8620758,8.043243,-0.393219,0.10362244,0.2420044
1.7319183,0.6543274,9.275162,-0.35229492,-0.1618042,0.24505615
1.7584686,0.18630981,9.263214,-0.12107849,-0.18013,0.1607666
2.2170258,-0.09786987,8.842209,-0.14886475,-0.0020599365,0.18000793
2.682846,0.045425415,9.66748,-0.30464172,-0.06161499,0.2795868
2.5211334,-0.11218262,9.851669,-0.3144226,0.019622803,0.3351593
2.328064,-0.1002655,9.849274,-0.23989868,0.10484314,0.39808655
2.038437,-0.052490234,9.492859,-0.12382507,0.009857178,0.38616943
1.9370728,0.1098938,9.576569,0.07531738,-0.013366699,0.34280396
1.6546783,-0.06442261,9.638763,0.27568054,0.25144958,0.3116455
1.2371521,-0.49186707,9.571793,0.35388184,0.47013855,0.40052795
1.4760895,0.047805786,9.110123,0.2652893,0.57948303,0.5779877
1.2926636,-0.02861023,6.481201,-0.019973755,0.5031433,0.6717682
1.234726,-0.23158264,6.471649,-0.30342102,-0.3581848,0.7756195
2.1953125,0.7020874,11.0525055,-0.67910767,-0.6391907,0.76400757
2.359436,0.16720581,10.88504,-0.76249695,-0.039001465,0.71421814
2.4125366,0.37971497,10.949646,-0.43170166,0.16868591,0.5743408
2.0094757,0.25793457,10.071732,0.026153564,0.2810974,0.3739624
1.8912048,0.594635,9.043137,0.34898376,0.17877197,0.17086792
1.9515381,0.86447144,8.990509,0.35205078,0.009567261,0.011123657
1.8670807,0.532547,9.899506,0.15258789,0.0022277832,-0.03439331
2.072235,-0.25546265,11.054901,-0.02822876,0.043777466,0.029754639
2.1615143,0.031097412,11.485458,0.016983032,0.19831848,0.14703369
1.8453369,-0.14323425,10.531021,0.099746704,0.12471008,0.14276123
1.6040039,0.083618164,10.145905,-0.03616333,0.022384644,0.097854614
1.5677948,0.21017456,9.885147,-0.13237,0.2584839,0.0929718
1.386795,0.023925781,9.394775,-0.064575195,0.5892792,0.14367676
1.1405945,-0.4703827,9.404358,0.004760742,0.82110596,0.28723145
1.2564545,0.3391266,10.267899,0.14587402,0.9429779,0.47750854
0.6820221,0.46806335,9.9951935,0.20878601,1.0266571,0.44360352
0.5106659,0.8907318,9.385208,0.092422485,0.74076843,0.38557434
1.5291901,0.2268982,9.385208,-0.08747864,0.7059479,0.14733887
-0.16513062,-0.7664795,10.026291,-0.13237,0.7496338,0.022109985
0.12210083,0.17674255,11.487854,0.11959839,0.65249634,0.29516602
1.5750275,0.8596802,7.411743,0.37953186,0.58499146,0.27287292
0.052093506,0.513443,6.505127,0.33309937,-0.602829,0.025772095
0.662735,0.033477783,11.956711,-0.0068511963,-0.76930237,0.13114929
1.6909027,0.2746582,11.593109,-0.35321045,0.10333252,0.28692627
2.2363434,-0.54200745,9.782288,-0.27867126,0.17785645,0.4521637
1.7753601,-0.019058228,10.133926,-0.12535095,0.22885132,0.46621704
0.5179138,0.59461975,10.25354,0.0041503906,0.32354736,0.29608154
1.3312683,0.4441986,10.045425,0.20329285,0.033996582,0.15527344
1.2081757,0.38687134,10.542984,0.301651,0.20137024,0.12779236
0.94029236,-0.3294983,11.617035,0.49284363,0.6540222,0.30220032
-0.64541626,0.33673096,9.325409,0.7937012,1.2679596,0.6369629
-1.0243378,1.5999298,7.368683,0.7958374,0.52970886,0.56700134
-0.12892151,1.6214142,8.763275,0.22802734,-0.27938843,0.008666992
-0.16029358,0.27703857,10.095657,-0.21820068,-0.45622253,-0.29829407
0.42137146,-1.0148163,8.425964,-0.084121704,-0.47698975,-0.14312744
0.31759644,0.628067,9.765564,-0.037078857,-0.7393646,0.18704224
0.72789,1.2441406,9.495239,-0.2631073,-0.3691864,0.14855957
0.79789734,0.2507782,10.040634,-0.40116882,-0.13154602,-0.037139893
0.7834015,0.27226257,10.043045,-0.2826538,0.04864502,-0.048446655
0.69892883,0.21734619,9.882767,-0.023345947,0.043167114,-0.0625
0.64100647,0.43704224,9.760773,0.14343262,0.039794922,-0.080200195
0.5179138,0.518219,9.662704,0.09913635,0.0016174316,-0.060058594
0.52275085,0.5970154,9.856445,-0.037994385,-0.06526184,-0.041107178
0.39241028,0.6638794,10.21048,-0.08747864,-0.12084961,-0.048446655
0.5155029,0.66148376,10.54538,-0.034332275,-0.10406494,-0.080825806
0.54930115,0.5970154,10.75827,0.078063965,-0.087265015,-0.100372314
0.5130768,0.7402954,10.241577,0.18832397,-0.09184265,-0.07531738
0.28138733,0.680603,9.849274,0.15596008,-0.14865112,-0.042648315
0.20898438,0.44180298,8.9953,0.0044555664,-0.31358337,0.032196045
0.71824646,0.8453522,9.523956,-0.14794922,-0.52342224,0.13084412
0.82925415,0.62327576,9.674652,-0.2597351,-0.43972778,0.19926453
1.058548,0.5158386,9.516785,-0.38711548,-0.16667175,0.25546265
1.085083,0.28659058,9.696182,-0.4628601,0.09385681,0.22216797
1.338501,0.06451416,9.968887,-0.464386,0.2768097,0.3321228
1.2202454,0.42271423,10.308563,-0.39505005,0.39837646,0.41184998
0.60720825,0.18630981,10.150681,-0.25271606,0.41456604,0.2682953
0.34172058,-0.20770264,10.167435,-0.09724426,0.22091675,0.095718384
0.35139465,-0.11695862,10.3564,-0.008987427,0.08805847,0.045928955
0.32000732,-0.14562988,10.023895,-0.015090942,0.12471008,0.088394165
0.23071289,0.026306152,9.8134,-0.074035645,0.13447571,0.13970947
0.28381348,0.050201416,9.954529,-0.11099243,0.08103943,0.12809753
0.37068176,-0.03338623,9.9951935,-0.07800293,0.056900024,0.1030426
0.5975647,0.06451416,9.930603,-0.021499634,0.0010070801,0.11557007
0.80029297,0.12660217,9.9951935,0.049957275,0.0074157715,0.09144592
0.77615356,0.093170166,9.681824,0.13487244,0.018112183,0.110687256
0.89442444,0.25793457,9.657913,0.22161865,-0.05305481,0.11740112
0.7471924,0.28659058,9.691406,0.31477356,-0.07260132,0.06486511
0.56617737,-0.009506226,9.724884,0.35723877,-0.08114624,0.03036499
0.43826294,-0.14083862,9.724884,0.31019592,-0.0118255615,0.049301147
0.5999756,0.3271942,9.622025,0.2735443,0.03277588,0.028533936
0.7085724,0.37493896,9.409134,0.27934265,0.03643799,-0.066467285
0.81718445,-0.023834229,9.605286,0.21948242,0.073394775,-0.036834717
0.947525,0.19824219,9.622025,0.076538086,0.18945312,0.09022522
0.84132385,0.26750183,9.720108,-0.034942627,0.25360107,0.15588379
0.80029297,0.25317383,9.564621,-0.09449768,0.22061157,0.16200256
0.66996765,0.2460022,9.516785,-0.102752686,0.1720581,0.1482544
0.5565338,0.059753418,9.660309,-0.033721924,0.16532898,0.17849731
0.61686707,0.47763062,9.834915,0.0099487305,0.16197205,0.20323181
0.43344116,0.40359497,9.746414,0.05607605,0.17877197,0.17300415
0.44792175,0.47763062,9.662704,0.11227417,0.14639282,0.13145447
0.42378235,0.5492554,9.471313,0.10769653,0.11798096,0.07556152
0.29586792,0.522995,9.447403,0.06829834,0.04866028,0.0068359375
0.29586792,0.41314697,9.547867,0.045074463,-0.04296875,-0.025238037
0.50827026,0.3439026,10.007156,0.027664185,-0.119628906,-0.032562256
0.48895264,0.37971497,10.047821,-0.050827026,-0.07321167,-0.03439331
0.6530609,0.26986694,10.279846,-0.08198547,-0.061294556,-0.016067505
0.662735,0.30569458,10.2966,-0.046554565,-0.045715332,0.015701294
0.6555023,0.31047058,10.358795,-0.0340271,-0.0050964355,0.023330688
0.5710144,0.30569458,10.327698,-0.05999756,0.014450073,0.0135650635
0.6217041,0.27226257,10.385101,-0.06854248,-0.026779175,-0.008132935
0.5975647,0.18869019,10.499924,-0.030670166,-0.010299683,-0.034698486
0.5782471,0.3343506,10.153076,-0.001663208,0.04284668,-0.058517456
0.5637665,0.37493896,9.834915,0.059432983,0.026062012,-0.088150024
0.46723938,0.45373535,9.270401,0.16023254,0.010177612,-0.11166382
0.5541229,0.5922394,9.028778,0.18405151,-0.028625488,-0.1348877
0.41654968,0.5110626,8.825455,0.09883118,-0.02923584,-0.15626526
0.37794495,0.38926697,8.86853,0.0032348633,-0.0435791,-0.15106201
0.45758057,0.41314697,9.174698,-0.06211853,-0.053970337,-0.15657043
0.31277466,0.2460022,9.528732,-0.110687256,-0.033203125,-0.15046692
0.1800232,0.23405457,9.844482,-0.100616455,-0.06802368,-0.15748596
0.31759644,0.17436218,10.007156,-0.08656311,-0.16972351,-0.21459961
0.5492859,0.2507782,10.3181305,-0.10977173,-0.17279053,-0.24575806
0.662735,0.23165894,10.643448,-0.088394165,-0.14590454,-0.22895813
0.7013397,0.33436584,10.657806,-0.052963257,-0.040222168,-0.169693
0.6120453,0.45613098,10.542984,-0.033111572,0.02178955,-0.1055603
0.5058441,0.50627136,10.452087,7.7819824E-4,0.095687866,-0.07501221
0.48895264,0.43704224,10.236801,0.05607605,0.13935852,-0.073791504
0.49620056,0.508667,10.093277,0.07745361,0.074920654,-0.10128784
0.43344116,0.4346466,10.090881,0.079589844,0.020553589,-0.1461792
0.3513794,0.3391266,9.873184,0.09732056,0.035217285,-0.15992737
0.3610382,0.21495056,9.428268,0.13822937,0.03643799,-0.15075684
0.38998413,0.25317383,9.208206,0.1437378,0.013839722,-0.1385498
0.39482117,0.33673096,8.945068,0.13487244,-0.025558472,-0.1437378
0.3875885,0.40838623,8.968994,0.10952759,-0.1083374,-0.1715393
0.36587524,0.3439026,9.203415,0.042938232,-0.15170288,-0.19871521
0.33207703,0.3391266,9.600494,-0.041046143,-0.10040283,-0.1816101
0.29345703,0.26271057,9.942566,-0.078323364,-0.023117065,-0.14709473
0.2596588,0.21496582,10.066956,-0.084732056,0.017807007,-0.11898804
0.3006897,0.24362183,10.473602,-0.100616455,-0.02128601,-0.10739136
0.32724,0.34629822,10.542984,-0.04838562,-0.043273926,-0.100372314
0.33207703,0.49195862,10.148285,0.08081055,-0.03656006,-0.0896759
0.37068176,0.594635,9.555054,0.17703247,-0.004486084,-0.070129395
0.31277466,0.6996918,9.14122,0.15931702,-0.02708435,-0.047531128
0.2620697,0.6996918,9.26561,0.07470703,-0.12727356,-0.05241394
0.21380615,0.46806335,9.827744,0.018814087,-0.20149231,-0.08050537
0.31036377,0.31047058,10.145905,0.009963989,-0.18623352,-0.061584473
0.46240234,0.2507782,10.375534,0.032562256,-0.12239075,0.0025634766
0.46965027,0.4155426,10.071732,0.07714844,-0.01335144,0.055404663
0.5155029,0.575531,9.744019,0.09913635,-0.024658203,0.07647705
0.50102234,0.6925354,9.514389,0.07745361,-0.10406494,0.031280518
0.624115,0.74746704,9.698578,0.009643555,-0.1706543,-0.03164673
0.66996765,0.69729614,9.923431,-0.026687622,-0.15263367,-0.072265625
0.63375854,0.680603,9.880371,0.009643555,-0.0900116,-0.076538086
0.6385956,0.6065674,9.741638,0.047836304,-0.03289795,-0.055770874
0.65789795,0.5253906,9.473709,0.06340027,0.015075684,-0.02645874
0.67237854,0.5492554,9.425873,0.023391724,-0.03135681,0.029449463
0.64823914,0.5874634,9.51918,-0.024246216,-0.07563782,0.04257202
0.6940918,0.565979,9.763168,-0.005935669,-0.113204956,0.030654907
0.85580444,0.5826874,9.722488,0.0026245117,-0.0854187,0.037078857
0.7906494,0.63282776,9.822952,-0.019058228,-0.0365448,0.06854248
0.70617676,0.6256714,9.846878,-0.024856567,-0.013946533,0.08747864
0.6820221,0.56359863,9.94017,-0.051437378,-0.02861023,0.086257935
0.7496033,0.551651,10.117203,-0.08808899,-0.08938599,0.086868286
0.85339355,0.5731354,10.375534,-0.11099243,-0.098236084,0.08717346
0.92581177,0.570755,10.416214,-0.0816803,-0.047836304,0.07006836
0.9885559,0.608963,10.248764,0.0029296875,0.008972168,0.06854248
0.90167236,0.62327576,9.523941,0.10922241,0.026687622,0.051132202
0.8871918,0.6543274,9.263214,0.06492615,-0.027999878,0.032806396
0.93063354,0.6399994,9.28952,-0.03250122,-0.058532715,0.024551392
0.95957947,0.57792664,9.354111,-0.035247803,-0.03807068,0.041656494
0.8099518,0.494339,9.389999,-0.03036499,0.016921997,0.063949585
0.69169617,0.30569458,9.433044,-0.11373901,0.024551392,0.086868286
0.57585144,0.10272217,9.787079,-0.2166748,-0.020355225,0.13389587
0.7399597,-0.0119018555,10.093277,-0.22309875,-0.010284424,0.17086792
0.80270386,0.13615417,10.172211,-0.12504578,0.04133606,0.22247314
0.7013397,0.4585266,9.992798,0.0032348633,0.10424805,0.24110413
0.6651306,0.537323,9.660309,0.04600525,0.07798767,0.1913147
0.6409912,0.651947,9.777512,-0.023651123,-0.007232666,0.12901306
0.74479675,0.5874634,10.181778,-0.096343994,-0.05731201,0.06762695
0.8871918,0.561203,10.310959,-0.07128906,-0.105270386,0.038604736
1.0368195,0.5492554,10.387497,0.013320923,-0.10710144,0.055099487
1.2081757,0.6304474,10.176987,0.104034424,-0.04724121,0.07861328
1.1912994,0.546875,9.77272,0.17855835,-0.019744873,0.08288574
1.135788,0.537323,9.401962,0.19871521,-0.0096588135,0.089920044
1.1188812,0.4203186,9.39238,0.14067078,-0.0096588135,0.088394165
1.1212921,0.39883423,9.543091,0.045684814,0.01171875,0.09541321
1.0271606,0.27226257,9.657913,-0.019363403,0.04776001,0.07556152
1.0488892,0.19584656,9.741638,-0.056930542,0.0440979,0.057235718
1.0006256,0.18869019,9.806213,-0.044418335,0.0040740967,0.04196167
0.95477295,0.19346619,9.689011,-0.009597778,-0.0053863525,0.035247803
0.9668274,0.25794983,9.590927,-0.02027893,-0.0056915283,0.033721924
1.0223541,0.29614258,9.564621,-0.07861328,0.030654907,0.05784607
1.0223541,0.36538696,9.698578,-0.118927,0.044692993,0.08717346
0.86305237,0.3916626,9.839706,-0.10092163,0.025161743,0.07922363
0.92097473,0.34629822,9.925812,-0.070373535,0.006210327,0.07281494
0.9933624,0.3582306,9.980835,-0.06732178,0.040725708,0.086257935
0.9620056,0.3964386,9.932999,-0.042892456,0.06484985,0.10702515
0.9113159,0.46328735,9.832535,-0.022415161,0.032791138,0.084121704
0.81477356,0.48240662,9.91626,-0.0181427,0.0019378662,0.034332275
0.8606415,0.3916626,10.057388,-0.013259888,-0.0038604736,-0.0096588135
0.90167236,0.2937622,10.133926,-0.022415161,-0.013946533,-0.024002075
0.8461609,0.22450256,10.229614,0.0010986328,-0.021575928,-0.01637268
0.91374207,0.28182983,10.019119,0.0725708,-0.012710571,-0.003540039
0.9499359,0.30569458,9.734451,0.10891724,0.0052948,0.016616821
0.8847656,0.44180298,9.5885315,0.09089661,0.027908325,0.029129028
0.84132385,0.4633026,9.433044,0.04660034,0.019958496,0.012039185
0.8751221,0.42747498,9.497635,1.6784668E-4,0.028808594,-0.0072021484
0.86546326,0.34152222,9.576569,-0.015090942,0.034622192,-0.0041503906
0.80513,0.3630066,9.868423,-0.029144287,0.015975952,0.0013427734
0.8075409,0.35105896,9.947357,-0.027008057,0.025146484,0.0016479492
0.8075409,0.4107666,9.83252,0.006591797,0.057525635,0.010192871
0.7640991,0.41792297,9.598114,0.023391724,0.07096863,0.01600647
0.7858124,0.4012146,9.428268,-0.0013427734,0.063934326,0.014785767
0.8316803,0.31524658,9.495239,-0.034942627,0.045928955,0.008666992
0.8895874,0.2651062,9.734451,-0.056625366,-0.0026397705,0.004714966
0.8895874,0.25793457,10.105225,-0.076171875,-0.026153564,-0.0056762695
0.9282074,0.24838257,10.301376,-0.055404663,-0.015472412,-0.017288208
0.89201355,0.22450256,10.153076,-0.014175415,0.020263672,-0.015457153
0.7954712,0.21734619,10.009552,0.0072021484,0.05050659,0.001953125
0.70617676,0.23405457,9.820572,1.8310547E-4,0.058746338,0.010498047
0.6361847,0.24360657,9.801437,-0.01966858,0.022109985,0.005935669
0.68685913,0.30807495,9.9951935,-0.02456665,-0.010269165,0.014480591
0.7327118,0.34152222,9.758377,0.018508911,0.027282715,0.022720337
0.7254791,0.37971497,9.485672,0.039276123,0.031570435,0.016311646
0.7858124,0.36538696,9.480881,7.9345703E-4,-0.0026397705,-0.0066070557
0.8847656,0.3343506,9.655518,-0.04472351,-0.029510498,-0.016067505
0.8775177,0.28659058,9.877975,-0.058761597,-0.0050811768,-0.010253906
0.8389282,0.24838257,10.011948,-0.036453247,0.04408264,0.005935669
0.7809906,0.26986694,9.935394,-0.010803223,0.076156616,0.022125244
0.7568512,0.28182983,9.767944,0.008743286,0.07585144,0.027618408
0.6940918,0.32479858,9.727264,-0.0025482178,0.06700134,0.030670166
0.61203,0.32002258,9.739243,-0.02331543,0.050201416,0.025177002
0.5975647,0.26271057,9.827744,-0.03614807,0.052947998,0.019073486
0.7134094,0.16719055,9.9066925,-0.033096313,0.059661865,0.020599365
0.64341736,0.18391418,10.172195,-0.01171875,0.0046844482,0.009597778
0.6772156,0.21972656,10.3133545,0.015167236,-0.06037903,-0.0099487305
0.7158203,0.27227783,10.153076,0.035003662,-0.07350159,-0.02154541
0.7496033,0.28182983,9.918655,0.033187866,-0.0096588135,-0.016662598
0.71824646,0.2985382,9.653122,0.034713745,0.031570435,0.0025787354
0.7061615,0.36538696,9.433044,0.04876709,0.024841309,0.0050201416
0.7375488,0.38687134,9.294312,0.059143066,0.009887695,-0.002609253
0.66755676,0.3630066,9.358902,0.031661987,-0.017608643,-0.008712769
0.67237854,0.21257019,9.507202,-0.019348145,-0.017608643,-0.021240234
0.6747894,0.07884216,9.717728,-0.04408264,-0.017303467,-0.019714355
0.74235535,0.07646179,9.978439,-0.04286194,-0.029830933,-0.006576538
0.7254791,0.083618164,10.031067,-0.032791138,-0.004776001,-0.0019989014
0.6651459,0.15286255,10.043045,-0.02758789,0.009277344,-0.0044403076
0.6385803,0.18630981,9.990402,-0.030654907,0.03187561,0.0010528564
0.5879059,0.26986694,9.935394,-0.035842896,0.09539795,0.02885437
0.5179138,0.32957458,9.968887,-0.035232544,0.14152527,0.04197693
0.49136353,0.38926697,10.059784,-0.024246216,0.14183044,0.03526306
0.4985962,0.4155426,10.081314,0.013641357,0.11373901,0.027313232
0.546875,0.4250946,9.956924,0.066467285,0.092041016,0.023040771
0.5637665,0.3964386,9.619644,0.10404968,0.080444336,0.02029419
0.5782471,0.3391266,9.275162,0.08786011,0.054473877,0.015716553
0.5565338,0.2746582,9.440231,0.002029419,0.010192871,0.02029419
0.6144562,0.2698822,9.758377,-0.04928589,-0.016693115,0.021209717
0.6120453,0.22929382,9.947357,-0.034622192,-0.009963989,0.020599365
0.59272766,0.19108582,10.0215,-0.009887695,-0.008422852,0.0022735596
0.5975647,0.1146698,10.045425,0.01272583,-0.01637268,-0.012084961
0.58065796,0.14331055,9.976059,0.020355225,-0.027359009,-0.0019989014
0.5492859,0.19824219,9.751205,0.017303467,-0.013015747,0.01449585
0.52033997,0.25317383,9.509598,0.026153564,-0.016983032,0.025787354
0.50827026,0.3319702,9.521561,0.01852417,-0.03591919,0.037704468
0.50827026,0.3725586,9.516785,0.00843811,-0.021255493,0.0499115
0.47930908,0.3916626,9.590927,-0.0040893555,-0.029815674,0.04624939
0.5323944,0.35585022,9.755981,-0.02973938,-0.051498413,0.039230347
0.60720825,0.3534546,9.923431,-0.055389404,-0.045394897,0.047180176
0.57585144,0.29852295,9.89473,-0.07310486,-0.013931274,0.07191467
0.49378967,0.19824219,10.110016,-0.075546265,-0.011474609,0.089019775
0.5179138,0.18630981,10.301376,-0.06913757,-0.005065918,0.104904175
0.5492859,0.20539856,10.418594,-0.05355835,0.015090942,0.10826111
0.60479736,0.29852295,10.229614,0.005996704,0.030975342,0.09542847
0.58065796,0.28419495,9.834915,0.061279297,0.018753052,0.06794739
0.5710144,0.29852295,9.607681,0.060058594,0.0043945312,0.051742554
0.6144562,0.25317383,9.445007,0.031051636,-0.003540039,0.05633545
0.5710144,0.28659058,9.447403,0.014251709,0.0077667236,0.07191467
0.628952,0.2364502,9.464157,-0.01171875,7.324219E-4,0.07771301
0.73031616,0.2316742,9.648346,-0.055389404,-0.02859497,0.06488037
0.7496033,0.23405457,9.870804,-0.062423706,-0.05821228,0.039535522
0.7544403,0.1385498,9.909088,-0.051727295,-0.09303284,0.033432007
0.7978821,0.19348145,10.145905,-0.046539307,-0.0973053,0.025177002
0.761673,0.14570618,10.026276,-0.010192871,-0.06401062,0.027618408
0.84132385,0.24601746,10.076523,-0.0013275146,-0.088150024,0.028533936
0.78822327,0.27226257,10.004761,-0.011108398,-0.1055603,0.017852783
0.80513,0.3319702,10.023895,0.039901733,-0.104644775,0.001663208
0.7689209,0.2746582,9.787079,0.094573975,-0.068603516,-0.008712769
0.7447815,0.2889862,9.528732,0.099472046,-0.05455017,0.008377075
0.7640991,0.27703857,9.528732,0.042037964,-0.024307251,0.02609253
0.7713318,0.25793457,9.535919,-0.025146484,-0.027374268,0.049316406
0.8606262,0.21496582,9.5885315,-0.06210327,-0.044158936,0.06794739
0.90167236,0.10749817,9.598099,-0.05996704,-0.02949524,0.09390259
0.9764862,0.18391418,9.722488,-0.048065186,-0.029800415,0.110702515
0.92581177,0.15286255,9.710541,-0.06517029,-0.035003662,0.103378296
0.86787415,0.1385498,9.698578,-0.09753418,-0.024002075,0.09329224
0.94029236,0.1481018,9.753601,-0.12045288,-0.0041503906,0.08566284
0.9306183,0.20301819,9.930603,-0.11953735,-0.008117676,0.066726685
0.81718445,0.17675781,9.944962,-0.09051514,-0.039886475,0.038009644
0.89442444,0.21496582,10.026291,-0.054779053,-0.08418274,0.0062408447
0.947525,0.18869019,10.10762,-0.023330688,-0.05088806,-0.009033203
0.947525,0.16481018,10.083694,0.015472412,-0.01576233,-0.0056610107
0.90649414,0.10272217,9.985626,0.039901733,0.008056641,0.007461548
0.91374207,0.090789795,9.787079,0.035629272,0.015701294,0.011138916
0.89442444,0.08123779,9.684219,0.010894775,0.007751465,0.013580322
0.89442444,0.10273743,9.562225,-0.010803223,0.009902954,0.012969971
0.90167236,0.06451416,9.497635,-0.018432617,0.029434204,0.020599365
0.9837189,0.06690979,9.521545,-0.03340149,0.030975342,0.031585693
1.0271606,0.10272217,9.732056,-0.06730652,0.029129028,0.029769897
0.9571686,0.095565796,10.004761,-0.09967041,-7.9345703E-4,0.0068511963
0.95718384,0.07168579,10.255936,-0.10731506,-0.027359009,-0.012084961
0.908905,0.08123779,10.301376,-0.06852722,-0.011184692,-0.020324707
0.8364868,0.1481018,10.08609,-0.016906738,0.02822876,-0.009017944
0.7303009,0.21974182,9.947357,0.019134521,0.042877197,-0.002609253
0.7061615,0.19346619,9.849274,0.037460327,0.040130615,-0.015136719
0.7254791,0.21734619,9.868423,0.046310425,1.2207031E-4,-0.03437805
0.7640991,0.17913818,9.923416,0.028289795,-1.8310547E-4,-0.039260864
0.7978821,0.10032654,9.964096,0.014846802,0.034332275,-0.023986816
0.8461609,0.1146698,9.944962,0.01423645,0.050827026,-0.01574707
0.86787415,0.088394165,9.942566,0.007827759,0.03768921,-0.024291992
0.87753296,0.14570618,10.033463,0.024017334,0.014480591,-0.03590393
0.86546326,0.14331055,9.985626,0.060058594,0.0056152344,-0.042007446
0.77134705,0.16958618,9.854065,0.07929993,-0.04232788,-0.047210693
0.95957947,0.17198181,9.901901,0.08418274,-0.10279846,-0.07133484
1.058548,0.16481018,9.868423,0.104034424,-0.12571716,-0.0927124
1.1405945,0.2268982,9.904297,0.13580322,-0.11869812,-0.0973053
1.0102692,0.19108582,9.712936,0.1984253,-0.10891724,-0.112579346
1.0054474,0.2937622,9.562225,0.15841675,-0.088760376,-0.09484863
0.86546326,0.2794342,9.430649,0.09762573,-0.021865845,-0.080200195
0.7785797,0.2507782,9.43544,0.037460327,0.012649536,-0.061553955
0.68444824,0.21257019,9.571777,-0.013244629,0.032806396,-0.059417725
0.66030884,0.14331055,9.74881,-0.018432617,0.041656494,-0.055755615
0.6747894,0.17436218,9.815796,-0.007736206,0.06945801,-0.02949524
0.59272766,0.18151855,9.760773,0.0023345947,0.06640625,-0.02154541
0.65548706,0.20063782,9.763168,-0.0031585693,0.037994385,-0.029800415
0.68685913,0.20779419,9.846893,-0.02331543,-0.0014038086,-0.04017639
0.80270386,0.23405457,9.966492,-0.029434204,-0.03225708,-0.04689026
0.8775177,0.21017456,10.059784,-0.01171875,-0.0069122314,-0.042007446
0.90649414,0.32002258,9.932999,0.031051636,0.03189087,-0.025817871
0.8630371,0.39883423,9.753586,0.047225952,0.02760315,-0.01940918
0.8099365,0.4155426,9.614853,0.041122437,0.010818481,-0.036209106
0.77375793,0.3319702,9.614853,0.019439697,-0.013320923,-0.038650513
0.68685913,0.28182983,9.7894745,-0.011108398,0.007446289,-0.018798828
0.66030884,0.20301819,9.744019,-0.024230957,0.034332275,-0.006881714
0.66755676,0.17674255,9.643555,-0.01751709,-0.013320923,-0.007507324
0.72789,0.19107056,9.492859,-0.010803223,-0.066467285,-0.02368164
0.8123627,0.16481018,9.318237,-0.026687622,-0.15686035,-0.05026245
0.9788971,0.15763855,9.272781,-0.094177246,-0.26467896,-0.0756073
1.2202454,0.097961426,9.595718,-0.17481995,-0.30378723,-0.0914917
1.3602448,0.052581787,10.088486,-0.21818542,-0.16023254,-0.0597229
1.3578186,0.01676941,10.420975,-0.16381836,-0.015151978,0.009902954
1.123703,0.031097412,10.385101,-0.026367188,0.05204773,0.04258728
1.0054474,0.1337738,10.198517,0.094573975,0.026687622,0.0068511963
1.0175171,0.25317383,10.110016,0.12878418,-0.019729614,-0.035598755
0.9909668,0.31047058,10.011948,0.12084961,-0.027053833,-0.04475403
0.84373474,0.32957458,9.877975,0.124816895,0.012039185,-0.028884888
0.7592621,0.31048584,9.521545,0.12327576,0.06732178,-0.014221191
0.77615356,0.2507782,9.263214,0.07746887,0.06762695,0.0041046143
0.8630371,0.28419495,9.399567,0.008743286,0.029144287,0.013885498
0.9378662,0.23883057,9.650726,-0.017211914,-0.010574341,0.0050201416
0.95957947,0.16242981,9.799042,-0.01171875,-8.087158E-4,-0.012084961
1.0054474,0.11705017,9.803818,-0.032180786,0.023635864,-0.011474609
1.01268,0.11227417,9.89473,-0.074020386,0.029754639,0.0068511963
1.0633698,0.17913818,9.923431,-0.0758667,0.028839111,0.014801025
1.0175171,0.2555542,9.892334,-0.025161743,0.008377075,0.0050201416
0.9499359,0.2794342,9.787079,0.020050049,4.272461E-4,-0.012084961
0.9113159,0.29136658,9.720108,0.00843811,0.017227173,-0.010238647
0.8751221,0.31285095,9.779907,-0.018737793,0.025772095,0.0053253174
0.89201355,0.31285095,9.899506,-0.024230957,0.0077667236,0.011138916
0.8895874,0.30091858,9.988022,5.0354004E-4,0.006225586,0.008682251
0.8751221,0.27703857,9.925812,0.047851562,0.016921997,0.009307861
0.86787415,0.2698822,9.818192,0.07104492,0.016616821,0.0035095215
0.8606415,0.2794342,9.717712,0.059753418,1.2207031E-4,-7.7819824E-4
0.91374207,0.31285095,9.677048,0.03929138,-0.0236969,4.4250488E-4
1.0682068,0.33673096,9.720108,0.012420654,-0.029510498,0.0053253174
1.1092377,0.4012146,9.882767,0.0041656494,-0.036834717,0.011444092
1.1237183,0.42749023,10.081314,0.02279663,-0.04751587,-0.0019989014
1.097168,0.4441986,10.074127,0.054260254,-0.051193237,-0.010543823
1.0561371,0.39883423,10.033463,0.0637207,-0.026763916,-0.0019989014
1.0319977,0.3224182,10.088486,0.023117065,0.017227173,0.0132751465
1.0706177,0.27703857,10.21048,0.013946533,0.08227539,0.04472351
0.99819946,0.22450256,10.06218,0.08143616,0.14367676,0.049301147
0.908905,0.20779419,9.811005,0.16390991,0.16200256,0.031906128
0.8461609,0.21257019,9.418701,0.20239258,0.12382507,0.008071899
0.81477356,0.2460022,9.131653,0.16513062,0.0670166,-0.02368164
0.8365021,0.2651062,9.169922,0.06739807,0.021499634,-0.04598999
0.89201355,0.26986694,9.28952,-0.026687622,0.011428833,-0.05819702
0.90408325,0.32002258,9.454575,-0.053863525,-0.010574341,-0.063690186
0.8606415,0.33673096,9.614853,-0.049591064,-0.03378296,-0.063079834
0.83891296,0.3677826,9.650742,-0.05203247,-0.06768799,-0.065841675
0.81718445,0.43225098,9.763168,-0.056915283,-0.098526,-0.063079834
0.90167236,0.45373535,9.9066925,-0.07952881,-0.09150696,-0.061553955
0.90649414,0.45137024,10.028671,-0.092041016,-0.067993164,-0.065216064
0.9692383,0.40838623,10.370758,-0.07676697,-0.062179565,-0.069503784
0.94029236,0.3534546,10.502319,-0.016906738,0.004699707,-0.04660034
0.7520294,0.37017822,10.167435,0.07533264,0.07342529,-0.033462524
-5.8899994,-8.147461,0.6827698,-0.008148193,-0.008636475,-0.024887085
-5.902069,-8.061493,1.1372681,0.07737732,-0.053848267,0.003829956
-5.7451935,-8.075821,1.4458618,-0.0017242432,-0.013839722,0.012084961
-5.7500153,-7.7152557,1.3908386,-0.16513062,0.04510498,0.012390137
-5.682434,-7.7582245,1.1803284,-0.29403687,0.09703064,-0.001663208
-5.7476044,-7.8394165,0.70669556,-0.2243805,0.1324768,0.0041503906
-5.8586273,-8.040009,0.49380493,0.010177612,0.010910034,0.001083374
-5.798279,-8.121185,1.005722,0.1525116,-0.08041382,-0.0022735596
-5.762085,-7.965973,1.2831879,0.10180664,-0.06484985,0.005050659
-5.7500153,-7.7630005,1.1779327,0.020874023,-0.010177612,-0.024276733
-5.7789917,-7.8585205,1.1109619,-0.031967163,0.013656616,-0.04045105
-5.757263,-8.023285,1.0081024,-0.0050964355,0.03074646,-0.025497437
-5.7355347,-8.013733,1.0296326,-0.008453369,0.04573059,-1.373291E-4
-5.7886353,-7.9540405,0.79042053,-0.0105896,0.01914978,0.010543823
-5.803116,-7.7916565,0.9028473,0.059051514,-0.06575012,-0.005935669
-5.803116,-7.7964478,1.0439758,0.06700134,-0.07675171,-0.03892517
-5.6607056,-7.903885,1.0368042,-0.011505127,-0.04560852,-0.08015442
-5.602783,-7.9922333,0.8286896,-0.107406616,-0.057510376,-0.12231445
-5.7427826,-7.927765,1.1133575,-0.11871338,-0.17572021,-0.12719727
-5.655884,-8.130737,1.2066498,-0.026168823,-0.07980347,-0.08413696
-5.7355347,-8.154617,1.1253052,0.007736206,-0.042541504,-0.021530151
-5.68486,-8.008957,1.3740845,-0.02708435,-0.027282715,-0.008682251
-5.723465,-7.9922333,1.2138214,-0.051818848,-0.01322937,-0.030075073
-5.7813873,-7.9779205,1.0679016,-0.0637207,-0.036132812,-0.065200806
-5.721054,-7.899124,1.149231,-0.08938599,-0.13357544,-0.12963867
-5.3372955,-8.4483185,0.6971283,0.06881714,-0.08836365,-0.12841797
-5.6389923,-8.21431,1.4195404,0.11280823,-0.10058594,-0.049316406
-5.655884,-8.044785,1.4482574,0.032485962,0.016708374,-0.022750854
-5.757248,-7.851349,0.68995667,0.13633728,-0.07400513,-0.0025939941
-5.9262085,-7.908661,1.4386749,0.26124573,-0.19343567,-0.07833862
-5.5545197,-8.242966,1.5176239,0.1720581,-0.043151855,-0.07009888
-5.5883026,-7.622116,1.5080566,0.18061829,-0.02268982,-0.09971619
-5.6293335,-5.883728,1.4338989,0.20474243,-0.12043762,-0.49832153
-5.2624817,-6.9726105,2.2663574,0.11830139,-0.015975952,-0.9937439
-4.861847,-7.6483917,1.2425232,0.063934326,0.455307,-1.273819
-4.494995,-7.392868,0.30004883,-0.24209595,0.5594635,-1.3046722
-4.386383,-6.6812897,0.15412903,-0.47148132,0.23875427,-1.3874359
-3.7371368,-6.1105957,-0.38409424,-0.44644165,-0.2420044,-1.4451599
-3.1385803,-5.7571716,0.108673096,-0.33831787,-0.68151855,-1.4378357
-2.9527435,-5.926697,0.43399048,-0.24362183,-0.9386902,-1.2741241
-2.5472717,-5.4157104,0.82151794,-0.40429688,-0.99794006,-1.0627594
-1.9463043,-4.8187256,2.0103912,-0.84931946,-0.7401581,-0.93600464
-1.3887787,-4.8569336,2.0654144,-1.252182,-0.09202576,-0.8681946
-1.3284454,-7.189911,0.8023834,-1.49469,0.5020447,-0.91127014
-1.0364075,-9.943146,-0.57069397,-1.0683136,0.5863495,-1.1360626
-0.48854065,-11.070236,-0.57069397,-0.07106018,-0.048355103,-1.4555511
-1.149826,-11.280365,1.2377319,0.26216125,-0.3892212,-2.0319061
-2.8055115,-11.700638,1.1635895,0.26553345,-0.10209656,-2.458603
-5.4121246,-12.400299,-1.675827,-0.07473755,-0.62867737,-2.2985535
-5.9020844,-17.641724,4.101074,-0.95988464,-0.6625824,-2.4986115
-1.0750122,-15.074738,-2.560913,-0.8603058,0.6254425,-2.8208466
2.4342499,-10.287018,-1.7404175,-0.5985565,-0.41059875,-2.6018524
4.104416,-4.5727844,-0.17837524,-0.39482117,-1.0379639,-2.0700836
6.2958984,5.0456696,-1.4772797,-0.49623108,-1.7734528,-0.9302063
1.5991821,-8.195221,2.9743958,0.03767395,-1.8397217,0.5972748
-4.709778,-25.602966,0.95069885,0.029129028,0.51426697,1.0716095
-8.10321,-21.942322,-2.5633087,0.3898468,0.76013184,-0.93692017
1.234726,-9.360504,-0.94384766,0.39076233,-0.3491974,-1.2897034
1.8646545,-10.480423,0.56796265,0.24749756,-0.8272095,-0.7787018
1.3843689,-9.181412,1.4458618,0.04411316,-0.63383484,-0.667511
1.8091431,-9.94075,0.83825684,-0.10708618,-0.2346344,-0.39598083
1.0006256,-10.683395,0.37419128,-0.15596008,0.026824951,-0.32237244
1.7922668,-9.26738,-0.55155945,-0.19139099,0.06285095,-0.25364685
2.209793,-9.479904,-0.9270935,0.09114075,-0.41026306,0.0059661865
1.8139801,-9.807053,-0.286026,0.36572266,-0.8345032,0.21273804
0.7037506,-11.058289,0.41726685,0.45277405,-0.7749481,0.4519043
0.3755188,-10.891144,0.42442322,0.18826294,-0.31069946,0.46748352
0.40447998,-11.046356,0.22827148,-0.0056915283,-0.005874634,0.52459717
0.11967468,-11.774658,0.04408264,0.015396118,0.098602295,0.57743835
-0.22787476,-11.619446,0.6971283,0.1913147,0.01612854,0.6113434
-0.7733307,-11.872574,0.86457825,0.2337799,0.1770935,0.7240448
-1.1763916,-11.681534,0.74497986,0.21942139,0.23725891,0.8098755
0.14381409,-6.103424,1.589386,0.11772156,0.3783722,0.7164154
-0.25683594,-5.4969025,-0.14727783,-0.3544922,0.9428253,-0.5823059
2.977295,-9.119339,-0.90797424,-0.076538086,0.38874817,-0.2130127
1.2081757,-10.575943,0.18760681,0.0068359375,-0.22454834,0.009017944
0.56137085,-10.425507,0.32395935,-0.013931274,-0.15370178,0.018798828
0.68444824,-9.716309,-0.022903442,-0.019119263,-0.036712646,0.01940918
0.37068176,-9.496613,0.2115326,-0.07531738,-0.0632782,-0.06427002
0.2162323,-9.346176,0.21632385,-0.08325195,-0.037628174,-0.14001465
0.117263794,-9.482285,0.06323242,-0.06892395,-0.054153442,-0.18247986
0.0134887695,-9.816589,-0.18554688,-0.08969116,-0.10882568,-0.1717987
0.023132324,-9.885834,-0.19752502,-0.14283752,-0.15739441,-0.13575745
0.008651733,-9.854797,-0.20709229,-0.1895752,-0.1867218,-0.10307312
-0.04685974,-9.962265,-0.08029175,-0.21644592,-0.22518921,-0.070388794
0.07623291,-10.086426,0.13497925,-0.21583557,-0.21817017,-0.041366577
0.3031006,-10.019562,0.118255615,-0.18713379,-0.15097046,-0.012664795
0.40930176,-9.950317,-0.07789612,-0.14924622,-0.0947876,0.010238647
0.21139526,-9.983749,-0.29559326,-0.11747742,-0.0901947,0.0044403076
-0.044448853,-10.055389,-0.45825195,-0.09213257,-0.12776184,-0.012664795
-0.17477417,-9.990906,-0.42715454,-0.06312561,-0.19252014,-0.018463135
-0.22303772,-9.914505,-0.28123474,-0.056396484,-0.2215271,-0.012359619
-0.22787476,-9.938385,-0.20709229,-0.06312561,-0.21755981,0.009338379
-0.288208,-9.919266,-0.22860718,-0.06983948,-0.22793579,0.034072876
-0.20132446,-9.859573,-0.3458252,-0.06587219,-0.23893738,0.042617798
-0.013061523,-9.776001,-0.39128113,-0.04449463,-0.26307678,0.027038574
0.07141113,-9.766449,-0.30038452,-0.042648315,-0.28016663,0.005050659
0.052093506,-9.690033,-0.28123474,-0.051208496,-0.28689575,-0.009292603
0.04484558,-9.761673,-0.41758728,-0.056396484,-0.28016663,-0.029159546
-0.044448853,-9.814209,-0.6639862,-0.06585693,-0.2716217,-0.049621582
-0.12409973,-9.752121,-0.77879333,-0.06556702,-0.29759216,-0.0639801
-0.11442566,-9.838074,-0.73335266,-0.069229126,-0.33119202,-0.06825256
-0.022735596,-9.916885,-0.65919495,-0.07533264,-0.36141968,-0.059692383
0.066589355,-9.816589,-0.5539398,-0.078689575,-0.3834076,-0.04748535
0.09555054,-9.816589,-0.4582672,-0.070755005,-0.38035583,-0.043807983
0.19932556,-9.885849,-0.4630432,-0.054870605,-0.3534851,-0.046554565
0.33448792,-9.909729,-0.5228424,-0.036849976,-0.32476807,-0.049621582
0.39241028,-9.912109,-0.5946045,-0.025848389,-0.30552673,-0.055419922
0.47447205,-9.998077,-0.5970001,-0.018218994,-0.2780304,-0.0569458
0.5613556,-9.957474,-0.53718567,-0.0121154785,-0.24229431,-0.05053711
0.6023865,-9.873886,-0.48217773,-5.0354004E-4,-0.20870972,-0.0398407
0.6747894,-9.826141,-0.43911743,0.02178955,-0.17358398,-0.03100586
0.71824646,-9.764053,-0.49414062,0.033081055,-0.12562561,-0.03894043
0.69892883,-9.721069,-0.61135864,0.03340149,-0.08287048,-0.06338501
0.69892883,-9.592133,-0.7046509,0.022094727,-0.069732666,-0.08506775
0.65548706,-9.644653,-0.6998596,0.0010223389,-0.07858276,-0.10308838
0.72789,-9.804657,-0.67115784,-0.021270752,-0.07766724,-0.11682129
0.8871918,-9.835709,-0.5539398,-0.040512085,-0.05567932,-0.11437988
1.0947418,-9.818985,-0.42237854,-0.06251526,0.0023498535,-0.08811951
1.1671448,-9.93837,-0.5108948,-0.05456543,0.027389526,-0.05696106
0.9740753,-9.883453,-0.70225525,-0.015167236,-0.04559326,-0.052993774
0.61927795,-9.718689,-0.73573303,0.023010254,-0.15708923,-0.079559326
0.47447205,-9.663773,-0.73335266,0.017822266,-0.23161316,-0.10888672
0.5034332,-9.778381,-0.60417175,-0.012420654,-0.2456665,-0.11500549
0.66996765,-9.826141,-0.53718567,-0.03501892,-0.18151855,-0.09269714
0.75686646,-9.797501,-0.50131226,-0.05090332,-0.10699463,-0.06338501
0.73031616,-9.902557,-0.43911743,-0.047546387,-0.08468628,-0.050247192
0.7640991,-9.912109,-0.35539246,-0.025558472,-0.07766724,-0.041381836
0.77615356,-9.873886,-0.34103394,-0.005996704,-0.07583618,-0.03253174
0.8992615,-9.926422,-0.42237854,0.0031585693,-0.038269043,-0.026412964
0.9499359,-9.838074,-0.5180664,0.017822266,-0.011993408,-0.028259277
0.8582306,-9.809418,-0.6424408,0.03340149,0.001739502,-0.036499023
0.7254791,-9.861954,-0.7429199,0.036468506,0.0087890625,-0.04197693
0.7061615,-9.797485,-0.7763977,0.024551392,0.0057373047,-0.03892517
0.73272705,-9.766449,-0.63526917,0.0065307617,0.004196167,-0.027618408
0.8244324,-9.785538,-0.52046204,-0.0010986328,0.010314941,-0.017242432
0.84132385,-9.783157,-0.42477417,0.0037841797,0.0036010742,-0.0132751465
0.7978821,-9.807037,-0.43193054,0.012954712,0.00970459,-0.015106201
0.8509674,-9.835709,-0.4582672,0.019042969,0.0234375,-0.02029419
0.9113159,-9.818985,-0.52285767,0.017227173,0.029251099,-0.02243042
0.9402771,-9.816589,-0.5587311,0.004699707,0.026489258,-0.022125244
0.89442444,-9.761673,-0.5946045,-0.0068969727,0.024658203,-0.020904541
0.82684326,-9.768845,-0.58981323,-0.01576233,0.030456543,-0.02029419
0.7834015,-9.821381,-0.53240967,-0.011795044,0.036880493,-0.02029419
0.761673,-9.833298,-0.45347595,-0.0017089844,0.043899536,-0.023345947
0.80029297,-9.809418,-0.3721466,0.0071411133,0.06895447,-0.021514893
0.82684326,-9.869125,-0.37454224,0.01171875,0.10040283,-0.018463135
0.78822327,-9.938385,-0.54437256,0.028533936,0.14286804,-0.0132751465
0.7447815,-9.895401,-0.7237854,0.07067871,0.15600586,-0.0065460205
0.70858765,-9.816589,-0.65919495,0.10916138,0.12454224,-0.0065460205
0.8340912,-9.864349,-0.50131226,0.10702515,0.069869995,-0.0062408447
0.87753296,-9.845245,-0.33146667,0.055404663,0.038406372,0.009933472
1.1599121,-9.859573,-0.22860718,0.03250122,-0.038864136,0.008102417
0.94029236,-9.756882,-0.29559326,0.023025513,-0.08039856,0.008712769
0.87028503,-9.697189,-0.4008484,0.0181427,-0.07826233,0.012084961
0.8099518,-9.728226,-0.52046204,0.015701294,-0.06391907,0.009338379
0.8220062,-9.761673,-0.58503723,0.010498047,-0.04374695,1.6784668E-4
0.8316803,-9.768829,-0.4845581,-0.0020141602,-0.02848816,-0.009307861
0.76651,-9.699585,-0.39605713,-0.024017334,-0.047409058,-0.005935669
0.7930603,-9.947922,-0.37454224,-0.024932861,-0.0025177002,1.6784668E-4
0.78582764,-9.995682,-0.4008484,-0.009048462,-0.0046539307,1.6784668E-4
0.7640991,-9.967041,-0.42715454,0.012649536,0.0063323975,0.0023040771
0.78582764,-9.876282,-0.36975098,0.017227173,0.021606445,0.004135132
0.7520294,-9.783173,-0.27645874,0.013870239,0.006942749,0.0016937256
0.7520294,-9.740189,-0.2501526,0.006225586,0.044830322,0.010543823
0.70858765,-9.718689,-0.28123474,0.016616821,0.024368286,0.0062713623
0.66030884,-9.713913,-0.35061646,-1.8310547E-4,-0.042541504,0.016052246
0.662735,-9.721085,-0.39605713,0.0440979,0.012756348,-0.0019683838
0.66755676,-9.77121,-0.41041565,0.042877197,0.050323486,0.0019989014
0.67237854,-9.771225,-0.36497498,0.02394104,-0.028793335,-0.0041046143
0.7182312,-9.761673,-0.3243103,-0.0056915283,-0.061172485,4.7302246E-4
0.80270386,-9.826141,-0.35061646,-0.008117676,-0.0077056885,-0.0010528564
0.904068,-9.881073,-0.39605713,-0.009353638,-0.014434814,-0.004119873
0.98132324,-9.907333,-0.39845276,-0.008132935,0.0011444092,-0.0034942627
0.9933777,-9.91449,-0.37454224,-0.0017089844,0.0087890625,-0.0010528564
0.9523468,-9.864349,-0.35061646,0.0025634766,0.014587402,1.6784668E-4
0.8992615,-9.811813,-0.36735535,0.007751465,0.031692505,-0.0032043457
0.8751221,-9.821381,-0.41281128,0.010498047,0.030166626,-0.0050354004
0.86787415,-9.804657,-0.4439087,0.0043945312,0.019165039,-0.004425049
0.87028503,-9.766449,-0.40563965,-0.00630188,0.022216797,0.0059661865
0.8509674,-9.749725,-0.39605713,-0.012710571,0.005432129,0.014831543
0.83891296,-9.756882,-0.3721466,-0.011184692,0.010620117,0.023376465
0.8630371,-9.780777,-0.34103394,-0.0053710938,-0.0046539307,0.025512695
0.8847656,-9.821365,-0.3338623,-0.0010986328,0.0017547607,0.032852173
0.91374207,-9.974197,-0.33625793,-0.0017089844,-0.025726318,0.03895569
0.8871918,-9.854797,-0.3338623,0.0071411133,0.008178711,0.040481567
0.8365021,-9.828537,-0.33865356,0.018753052,0.004501343,0.042312622
0.7930603,-9.850021,-0.39845276,0.028823853,-0.015960693,0.04475403
0.82684326,-9.883453,-0.44389343,0.025466919,-0.048339844,0.05026245
0.9354553,-9.876282,-0.4582672,0.0181427,-0.06971741,0.063690186
1.102005,-9.864349,-0.47262573,0.017532349,-0.07887268,0.083862305
1.2081757,-9.816589,-0.4750061,0.024856567,-0.07673645,0.10279846
1.2540436,-9.792709,-0.50131226,0.031570435,-0.06239319,0.11073303
1.2467957,-9.752121,-0.5419769,0.038909912,-0.048034668,0.106155396
1.200943,-9.766449,-0.58503723,0.043792725,-0.04008484,0.09576416
1.1816254,-9.787933,-0.6376648,0.048675537,-0.04711914,0.089660645
1.1575012,-9.821381,-0.70225525,0.04989624,-0.06636047,0.090270996
1.0947418,-9.89061,-0.7094269,0.043792725,-0.09170532,0.103393555
1.1019897,-9.888229,-0.70225525,0.035247803,-0.10362244,0.1269226
1.1550751,-9.792694,-0.6855011,0.032806396,-0.10513306,0.15350342
1.2033539,-9.900177,-0.64723206,0.03982544,-0.096588135,0.17211914
1.2757568,-9.91449,-0.64245605,0.055099487,-0.08406067,0.1846466
1.2661133,-9.764053,-0.63287354,0.07952881,-0.06819153,0.18739319
1.2081757,-9.835693,-0.59939575,0.1088562,-0.04864502,0.18647766
1.1792145,-9.864349,-0.5970001,0.1394043,-0.0284729,0.18647766
1.1285248,-9.909729,-0.5132904,0.16934204,-0.018096924,0.19778442
1.0802612,-9.885834,-0.4702301,0.20323181,-0.028182983,0.22373962
0.99819946,-9.556305,-0.2788391,0.24447632,-0.08255005,0.24267578
0.63375854,-9.587357,-0.09944153,0.27622986,-0.17631531,0.2322998
-0.073410034,-9.747345,0.07040405,0.29089355,-0.29664612,0.21458435
-0.93504333,-9.828537,-0.013320923,0.31105042,-0.40631104,0.22406006
-1.3742828,-9.711517,0.013000488,0.24539185,-0.4756317,0.26374817
-1.6928864,-9.580185,-0.41760254,0.1482544,-0.4719696,0.29460144
-1.3887787,-9.43692,-1.0658569,-0.0026397705,-0.44754028,0.30651855
-0.9688263,-9.522888,-1.1352234,-0.15626526,-0.57398987,0.27474976
-0.9060669,-9.568253,-0.82424927,-0.22407532,-0.7422943,0.21733093
-0.6043854,-9.852402,-0.7692261,-0.2133789,-0.8143616,0.1586914
-0.29545593,-10.181946,-0.24057007,-0.15596008,-0.94784546,0.11378479
-0.073410034,-10.451767,0.443573,-0.078063965,-0.996109,0.08049011
0.16793823,-10.521027,0.90763855,0.015701294,-0.8668976,0.078048706
0.16795349,-10.384903,1.4649963,0.10977173,-0.66134644,0.081710815
-0.29545593,-10.205826,1.7376862,0.17391968,-0.3864441,0.100357056
-0.5536957,-9.818985,1.3214722,0.2142334,-0.062088013,0.115615845
-0.60679626,-9.721069,0.7593231,0.2682953,0.11048889,0.105529785
-0.84332275,-9.477509,0.123031616,0.27653503,0.17921448,0.10430908
-0.6792145,-9.403488,-0.6400604,0.2243042,0.21342468,0.111953735
-0.6357422,-9.515717,-0.7333374,0.14855957,0.06803894,0.13180542
-0.8336792,-9.649445,-0.5276184,0.0847168,-0.07398987,0.15409851
-0.81918335,-9.733017,-0.4008484,0.04899597,-0.11186218,0.18281555
-0.4595642,-9.845245,-0.19752502,0.06364441,-0.14179993,0.17854309
-0.25442505,-10.05777,-0.049194336,0.11282349,-0.20806885,0.147995
0.15345764,-9.735397,-0.032455444,0.16078186,-0.22885132,0.119888306
0.4600067,-9.644653,-0.19752502,0.18612671,-0.1921997,0.0826416
0.5155029,-9.926422,-0.45347595,0.18276978,-0.16653442,0.049041748
0.40446472,-9.89061,-0.60417175,0.20658875,-0.22242737,0.009628296
0.032806396,-9.818985,-0.67355347,0.24385071,-0.26365662,-4.4250488E-4
-0.25442505,-9.907333,-0.7405243,0.2661438,-0.2587738,0.043533325
0.023132324,-9.878677,-0.61613464,0.27897644,-0.25358582,0.11807251
0.083480835,-10.074478,-0.20469666,0.2902832,-0.26275635,0.1675415
-0.08547974,-9.962265,-0.13531494,0.28814697,-0.20960999,0.20175171
0.052093506,-9.403488,0.03451538,0.29486084,-0.14057922,0.22434998
-0.15788269,-9.386765,0.087142944,0.31777954,-0.03703308,0.19442749
0.31759644,-9.928818,-0.19273376,0.38954163,-0.011993408,0.13487244
-0.042037964,-10.244019,-0.18554688,0.5453186,-0.2615204,0.09790039
-0.24958801,-11.480942,-0.8505554,0.6177063,-0.19891357,0.2093811
0.6675415,-10.681015,-0.36975098,0.5254669,-0.24412537,0.36149597
0.059326172,-8.949799,1.5367584,0.4888153,-0.35009766,0.4225769
-1.123291,-8.340866,2.6825562,0.55570984,-0.2957306,0.342865
-1.8690796,-8.890091,3.885788,0.74263,-0.39775085,0.22434998
-2.2166138,-9.883453,4.888077,1.1290131,-0.48449707,0.024917603
-2.9261932,-11.065445,5.782715,1.5444031,-0.54649353,-0.19866943
-3.2568512,-11.177689,5.947769,1.7637024,-0.4258423,-0.2136383
-3.1023865,-9.94075,5.041168,1.5996857,-0.18365479,-0.088409424
-2.6582947,-9.109772,3.8283691,1.0773926,0.15019226,0.13424683
-2.3445435,-8.799347,1.8788147,0.54776,0.380188,0.36637878
-1.6880646,-8.474594,1.5152283,0.33946228,0.11630249,0.59210205
-1.1088104,-8.145065,1.9792938,0.592041,-0.3162079,0.7200775
-1.1184692,-7.0394745,2.4672852,0.99064636,-0.31222534,0.85539246
1.1526642,-5.4730225,3.4432526,1.0492859,0.20913696,0.86058044
2.5983734,-6.069977,3.3212585,0.8770294,0.030166626,0.40670776
0.48895264,-7.2782593,2.5988464,0.7447815,-0.7502289,0.012390137
-0.88435364,-7.0967712,1.388443,0.8623657,-0.66012573,-0.05480957
-0.05168152,-6.225189,0.96266174,0.8556366,-0.035507202,-0.009613037
1.4302368,-6.050888,2.0056,0.7679901,0.41409302,-0.074661255
1.7439728,-8.374298,5.811432,1.1115875,0.32704163,-0.21577454
-0.45233154,-12.331039,11.475891,2.2319336,-0.3406372,-0.40698242
-6.7854156,-13.532166,10.569305,2.766449,-0.2032013,-0.18583679
-6.992981,-6.5427856,1.8644714,1.715744,1.5881805,0.7301636
-0.42337036,-0.5921478,-2.8790588,0.9298706,1.4703064,0.57164
-0.2037201,-4.739929,5.120117,1.5999908,-0.14544678,0.009933472
-1.014679,-8.173721,7.8255615,2.030655,-0.042526245,-0.13209534
-1.3839569,-7.4430237,5.2062225,1.9378052,0.55093384,-0.11680603
-2.4869385,-6.7290497,3.9216766,1.7487335,0.4748993,0.0019989014
-2.9551544,-6.7744293,5.3090973,1.7795868,0.19602966,0.13394165
-1.5456696,-6.702774,5.6846313,1.9261932,0.29652405,0.12509155
-0.47647095,-5.7428436,6.6151733,2.0462341,0.45167542,0.0019989014
-0.34614563,-4.892746,6.9404907,2.0233307,0.7696228,-0.12902832
-1.8956299,-5.492111,6.177414,2.117691,0.6398163,-0.23165894
-3.4354553,-6.098633,6.7204285,2.2551422,0.35699463,-0.2035675
-2.9551544,-6.5021973,7.4093475,2.3476868,0.17372131,-0.10643005
-2.6945038,-6.2108765,7.7657776,2.3079987,0.19084167,-0.12750244
-2.5834656,-4.661133,7.71315,2.220642,0.26231384,-0.114974976
-2.6317444,-4.6181335,9.342148,2.2725525,0.08239746,-0.2078247
-1.5335846,-4.341156,10.251144,2.312271,-0.009841919,-0.19134521
-2.0500793,-3.7847595,10.875473,2.241394,-0.07702637,-0.4121704
-3.2858124,-4.522629,10.827637,1.9753723,0.17953491,-0.38375854
-3.6888733,-2.1275635,10.449692,1.6833801,0.26475525,-0.2640381
-3.4933777,-1.1365967,11.014221,1.5220947,0.26750183,-0.3266449
-3.5295715,-0.8930359,11.145798,1.4154968,0.3731842,-0.32328796
-3.2085876,-1.2273254,11.227112,1.2655334,0.3701172,-0.24356079
-3.5368042,-1.3753815,11.985413,1.0758667,0.39212036,-0.0874939
-4.034012,-1.8052063,13.095352,0.88526917,0.5020752,0.15013123
-5.4097137,-0.9479523,14.55452,0.7154541,0.5023804,0.31658936
-6.121689,-0.29844666,14.363159,0.5379944,0.2876587,0.45159912
-6.223068,-1.2010803,12.9374695,0.27409363,0.28216553,0.28147888
-5.511078,-1.9771423,9.887543,0.16017151,0.7494812,0.25306702
-4.1522675,-0.98376465,7.7203217,-0.079589844,0.84233093,0.46717834
-3.254425,-0.50141907,7.055313,-0.23170471,0.61294556,0.5047455
-3.3557892,0.20779419,6.4859924,-0.1791687,0.27696228,0.5389557
-3.5561218,0.8047638,6.8208923,-0.0637207,-0.04649353,0.5783539
-3.949524,0.7928314,8.09108,-0.12113953,-0.14147949,0.57347107
-3.6695557,0.42747498,9.052704,-0.23658752,-0.13780212,0.57774353
-3.15065,-0.014282227,9.004868,-0.34013367,-0.1292572,0.5841522
-2.6920776,-0.32710266,9.203415,-0.44032288,-0.14453125,0.5759125
-2.4145203,-0.82855225,9.401962,-0.5380554,-0.011978149,0.49772644
-2.0018158,-0.80467224,9.607681,-0.5557709,0.1334076,0.27597046
-1.634964,-1.4661255,9.811005,-0.469635,0.090042114,0.038650513
-1.9294128,-1.9126587,9.763168,-0.3370819,0.072631836,-0.078933716
-2.638977,-2.3806915,9.712936,-0.21551514,0.08546448,-0.031295776
-2.9575653,-2.153839,9.988007,-0.17184448,0.13647461,0.028579712
-3.1627197,-1.7789459,9.172302,-0.14038086,0.10562134,-0.023040771
-3.5585327,-2.378296,8.375732,-0.06707764,-0.09413147,-0.04321289
-3.5657654,-1.8481903,8.890045,-0.050582886,-0.17201233,0.014526367
-3.6671295,-2.3401031,10.459259,0.008972168,-0.07092285,-0.039230347
-3.5488892,-1.5616455,10.095673,0.10610962,-0.05870056,-0.06428528
-3.7733307,-1.3610535,9.394775,0.18551636,-0.18118286,-0.1058197
-3.869873,-2.0272827,8.846985,0.18643188,-0.100250244,-0.10643005
-3.47406,-2.067871,8.612564,0.16627502,-0.061447144,-0.080459595
-3.3654633,-1.3300171,8.9665985,0.16871643,-0.17477417,-0.06703186
-3.326828,-0.90974426,9.313461,0.11343384,-0.21325684,-0.047790527
-3.3220062,-1.1174927,9.325394,0.055099487,-0.13993835,-0.04777527
-3.4330444,-1.2368927,8.904404,0.031570435,-0.109695435,-0.04685974
-3.4837189,-1.4732971,8.906799,0.015396118,-0.15917969,-0.030975342
-3.4837036,-1.6070099,9.212982,-7.9345703E-4,-0.13993835,0.0029296875
-3.3292542,-1.5019379,9.459366,-0.020950317,-0.106033325,0.039276123
-3.220642,-1.5377655,9.545486,-0.031341553,-0.11244202,0.060653687
-3.2061615,-1.5353851,9.461761,-0.03225708,-0.12069702,0.07348633
-3.1820374,-1.4661255,9.315842,-0.026443481,-0.1051178,0.08294678
-3.1675568,-1.3682251,9.277557,-0.024002075,-0.0745697,0.080200195
-3.0154877,-1.3323975,9.323013,-0.03378296,-0.052581787,0.06585693
-2.8755035,-1.3777771,9.325409,-0.04324341,-0.03578186,0.042022705
-2.752411,-1.4326935,9.263214,-0.044769287,-0.03578186,0.02583313
-2.75,-1.4900055,9.301498,-0.044769287,-0.03791809,0.019424438
-2.721054,-1.5831299,9.318237,-0.04171753,-0.012268066,0.01574707
-2.6414032,-1.5401459,9.299103,-0.02798462,-4.5776367E-5,0.011184692
-2.723465,-1.5879059,9.389984,-0.013931274,-0.0012664795,-0.0062408447
-2.8079224,-1.6356659,9.409134,-0.007507324,0.021636963,-0.023025513
-2.781372,-1.5616455,9.301483,7.324219E-4,0.037216187,-0.03463745
-2.8417053,-1.6452179,9.270401,0.0043945312,0.03414917,-0.040740967
-2.9093018,-1.6475983,9.246475,0.0071411133,0.031097412,-0.03982544
-2.9961853,-1.6452332,9.2608185,0.0053100586,0.026824951,-0.033721924
-3.0637665,-1.6619263,9.263214,-4.8828125E-4,0.022247314,-0.023025513
-3.1289368,-1.5688019,9.22493,0.0028686523,0.00819397,-0.018447876
-3.2230682,-1.6022339,9.263214,-0.0096588135,-0.009811401,-0.012039185
-3.230301,-1.5640411,9.193848,-0.013626099,-0.0027923584,-0.0028686523
-3.2013397,-1.5425415,9.117294,-0.0014038086,0.0057525635,0.0038452148
-3.2109833,-1.5043488,9.16275,0.0040893555,-0.006164551,0.007827759
-3.2182312,-1.4995575,9.217773,0.0025634766,-0.018371582,0.007217407
-3.18927,-1.5258179,9.222534,0.003479004,-0.013793945,0.0053863525
-3.11203,-1.5473175,9.22493,0.0037994385,-0.00920105,0.0053863525
-3.0178986,-1.5544891,9.241684,0.0031738281,-0.007675171,0.007507324
-2.9310303,-1.5616455,9.282349,1.2207031E-4,-0.012863159,0.011489868
-2.8755035,-1.5520935,9.320633,-0.0029296875,-0.014083862,0.01576233
-2.832077,-1.5735779,9.327789,-0.008132935,-0.013473511,0.016357422
-2.8296661,-1.5807343,9.301498,-0.00843811,-0.0055389404,0.01423645
-2.8465424,-1.5425415,9.291916,-0.0041503906,0.0033111572,0.011184692
-2.8803253,-1.5162659,9.294312,1.2207031E-4,0.0054626465,0.005996704
-2.9455109,-1.5186615,9.28952,0.0040893555,0.011550903,-0.0028686523
-3.0275726,-1.5401611,9.272781,0.007751465,0.011260986,-0.010818481
-3.0541077,-1.5425415,9.222549,0.01234436,0.009414673,-0.014785767
-3.0854797,-1.5281982,9.220154,0.01171875,0.00819397,-0.013259888
-3.1216888,-1.5234375,9.205811,0.011428833,0.00881958,-0.010818481
-3.1602936,-1.5067139,9.196243,0.011108398,0.0060577393,-0.008972168
-3.1337585,-1.5281982,9.229721,0.009887695,0.0014801025,-0.007446289
-3.1072083,-1.5449219,9.239288,0.007751465,-6.5612793E-4,-7.324219E-4
-3.0685883,-1.5401611,9.239288,0.0022583008,-0.0052337646,0.009963989
-3.0203247,-1.5234375,9.253647,-0.005065918,-0.008285522,0.020645142
-2.9961853,-1.5043335,9.294312,-0.008743286,-0.011352539,0.025527954
-2.9865265,-1.5043488,9.28714,-0.006591797,-0.011642456,0.022781372
-2.9817047,-1.5019379,9.275162,-0.0032348633,-0.004928589,0.017593384
-2.972046,-1.5067139,9.263214,-0.0026245117,-0.0012664795,0.010864258
-2.9792938,-1.5043335,9.26561,-0.0014038086,-0.0015716553,0.004776001
-2.9720612,-1.5043335,9.28952,1.2207031E-4,-0.0028076172,-0.0022735596
-3.0130768,-1.5067139,9.284744,0.0016479492,-3.6621094E-4,-0.008071899
-3.0227356,-1.5234375,9.260834,0.0031738281,0.0023956299,-0.011749268
-3.049286,-1.5401459,9.263214,0.0037994385,0.0054473877,-0.01234436
-3.049286,-1.5377655,9.253647,0.0022583008,0.003616333,-0.01083374
-3.0685883,-1.5377655,9.251251,0.001953125,0.00390625,-0.008071899
-3.0444489,-1.5568695,9.258438,-0.0010986328,0.0023956299,-0.00440979
-3.042038,-1.5353851,9.241684,-0.0032348633,-3.6621094E-4,4.7302246E-4
-3.0178986,-1.5186615,9.241684,-0.0044555664,-0.0012817383,0.004135132
-3.0275726,-1.5162659,9.2560425,-0.0044555664,-0.0052490234,0.003540039
-3.0348053,-1.5210419,9.253647,-0.002319336,-0.0025024414,0.0023040771
-3.0251465,-1.5138855,9.24408,-4.8828125E-4,-0.004638672,7.7819824E-4
-3.0178986,-1.5258179,9.275162,-0.0014038086,-0.0040283203,-7.4768066E-4
-3.010666,-1.5544739,9.303879,-0.0038452148,-0.0028076172,-1.373291E-4
-2.9961853,-1.5616455,9.277557,-0.003540039,-3.6621094E-4,0.0029144287
-2.9889374,-1.5449219,9.258438,-0.0032348633,-0.0021972656,0.0059661865
-2.9913483,-1.5186615,9.253647,-0.0017089844,-0.0021972656,0.0074920654
-2.9937744,-1.4995575,9.24408,-7.9345703E-4,-0.0012817383,0.0062713623
-3.0203247,-1.4852295,9.270401,4.272461E-4,-6.713867E-4,4.7302246E-4
-3.0348053,-1.5091095,9.275177,7.324219E-4,0.0017700195,-0.0053253174
-3.0251312,-1.5449219,9.248856,0.0013427734,0.006668091,-0.0068511963
-3.0130768,-1.5664215,9.246475,0.0013427734,0.0023956299,-0.0053100586
-3.0154877,-1.5616455,9.272766,0.001953125,0.0020751953,-0.0013427734
-3.0516968,-1.5568695,9.272781,4.272461E-4,-9.765625E-4,0.0014038086
-3.0516968,-1.5258179,9.2560425,1.2207031E-4,-0.003112793,0.0026245117
-3.0444489,-1.5449219,9.24408,-4.8828125E-4,-0.0067749023,0.0032348633
-3.042038,-1.5305939,9.239288,-7.9345703E-4,-0.007080078,0.0029296875
-3.0275574,-1.5186615,9.253647,4.272461E-4,-0.007080078,1.8310547E-4
-3.0203247,-1.5186615,9.251251,7.324219E-4,-0.006164551,-0.0010375977
-3.008255,-1.5019531,9.26561,0.001953125,-0.008605957,-0.0028686523
-3.001007,-1.5091095,9.279953,0.0016479492,-0.0052490234,-0.0037841797
-3.005844,-1.5234375,9.270401,-0.002319336,-0.0034179688,-0.0031738281
-2.9720612,-1.5258179,9.263214,-0.0029296875,-0.004333496,-0.0022583008
-2.9865417,-1.5377655,9.270401,-0.002319336,-0.0012817383,-4.272461E-4
-2.9817047,-1.5449219,9.272781,-0.0026245117,2.4414062E-4,4.8828125E-4
-2.9841156,-1.5329895,9.272781,-0.0020141602,0.004211426,0.0010986328
-2.9889374,-1.5281982,9.275162,-0.0017089844,8.544922E-4,7.9345703E-4
-2.9985962,-1.5353851,9.277557,-0.002319336,5.493164E-4,7.9345703E-4
-3.010666,-1.5329895,9.2560425,-0.0014038086,0.0014648438,-0.0010375977
-2.9986115,-1.5377655,9.253647,-1.8310547E-4,0.00390625,-0.0010375977
-3.008255,-1.5520935,9.253647,7.324219E-4,0.0036010742,-4.272461E-4
-3.0251465,-1.5353851,9.268005,1.2207031E-4,5.493164E-4,4.8828125E-4
-3.037201,-1.5281982,9.268005,-4.8828125E-4,-3.6621094E-4,0.0014038086
-3.0299683,-1.5401611,9.263214,-1.8310547E-4,-6.1035156E-5,7.9345703E-4
-3.0203247,-1.5115051,9.260834,4.272461E-4,2.4414062E-4,4.8828125E-4
-3.0227356,-1.5138855,9.282349,-7.9345703E-4,8.544922E-4,7.9345703E-4
-3.0299683,-1.5258331,9.291916,-0.0041503906,2.4414062E-4,-7.324219E-4
-3.0203247,-1.5425415,9.260834,-0.0044555664,0.0032958984,4.8828125E-4
-3.005844,-1.5353851,9.22493,-0.0038452148,2.4414062E-4,0.002319336
-2.9937744,-1.5353851,9.236893,-0.0038452148,-6.1035156E-5,0.004776001
-3.001007,-1.5067139,9.24408,-0.0014038086,2.4414062E-4,0.0038452148
-3.0130768,-1.5115051,9.270401,-4.8828125E-4,2.4414062E-4,4.8828125E-4
-3.0154877,-1.5329895,9.268005,7.324219E-4,-6.713867E-4,-0.0034942627
-3.0251465,-1.5449219,9.246475,4.272461E-4,0.0029907227,-0.0041046143
-3.0203247,-1.5425568,9.260834,-1.8310547E-4,0.0014648438,-0.0025787354
-3.0251465,-1.5497131,9.268005,1.2207031E-4,-6.1035156E-5,1.6784668E-4
-3.0299683,-1.5329895,9.2560425,1.2207031E-4,-3.6621094E-4,0.0013885498
-3.0203247,-1.5449219,9.234512,0.0013427734,-0.0025024414,0.003829956
-3.0178986,-1.5497131,9.236893,0.001953125,-6.713867E-4,0.0044403076
-3.0227356,-1.5186615,9.2560425,0.0022583008,0.0014648438,0.0056610107
-3.0227356,-1.5019531,9.275162,0.0025634766,5.493164E-4,0.004760742
-3.008255,-1.5186615,9.282349,0.001953125,-6.1035156E-5,0.005050659
-2.9986115,-1.5377655,9.277557,-0.0017089844,8.544922E-4,0.0053710938
-3.013092,-1.5497131,9.2608185,-0.004760742,0.0032958984,0.0059661865
-3.0299683,-1.5305939,9.253647,-0.005065918,5.493164E-4,0.0032196045
-3.0372162,-1.5568695,9.2608185,-0.0026245117,-0.0021972656,-0.0013580322
-3.046875,-1.5425415,9.272781,1.2207031E-4,-0.0040283203,-0.005630493
-3.0275574,-1.5568695,9.263214,0.0037841797,-0.0034179688,-0.008071899
-3.0154877,-1.5425415,9.26561,0.0056152344,-0.0021972656,-0.008682251
