Acceleration x,Acceleration y,Acceleration z,Rotation x, Rotation y, Rotation z
-7.538849,-7.717163,-0.7599945,0.2892456,-0.28593445,-0.032806396
-6.5372314,-7.4019775,-0.2743988,0.28649902,-0.19949341,-0.03463745
-6.348984,-7.2252502,0.85469055,-0.11943054,0.26446533,-0.061203003
-6.479309,-6.984085,2.115326,-0.397995,0.33563232,-0.10946655
-6.4575806,-6.902893,1.7588959,-0.29504395,0.029586792,-0.045013428
-6.2451935,-6.6855927,0.8809967,-0.098968506,-0.20744324,0.032562256
-6.0979767,-5.9286346,0.9049225,-0.07147217,-0.40260315,-0.012649536
-5.6007843,-5.983551,0.6083069,-0.08125305,-0.4041443,-0.18154907
-5.51149,-5.682678,0.82359314,-0.19548035,-0.48355103,-0.47781372
-5.3473663,-5.1764526,1.1991425,-0.4080658,-0.43193054,-0.8012848
-5.3280487,-5.5059814,1.4718475,-0.54367065,-0.23400879,-1.1348114
-5.583893,-6.4109955,0.55807495,-0.547348,0.07295227,-1.5217896
-5.9314423,-6.7906647,0.09161377,-0.5366516,0.010955811,-1.8195953
-5.5500946,-6.1387634,0.44802856,-0.5250397,-0.19308472,-2.0098877
-4.6619263,-5.135849,0.06768799,-0.58735657,-0.084350586,-2.04776
-3.4286041,-4.3669434,-0.22416687,-0.691803,-0.03730774,-1.9149017
-1.7415619,-5.226593,0.09161377,-0.65852356,-0.45239258,-1.7563782
-1.6353607,-7.2969055,0.9527588,-0.57147217,-0.82014465,-1.9011536
-2.1639252,-9.40303,0.06768799,-0.55192566,-0.683609,-2.220337
-2.636963,-10.778458,0.36669922,-0.14845276,-0.84121704,-2.5019379
-2.7310944,-12.034485,3.0888977,0.5848999,-1.1481781,-2.4264984
-2.427002,-11.58316,2.275589,0.62612915,-0.06604004,-1.9313812
-1.6329498,-11.022018,2.0292053,0.7953491,1.2736053,-1.5147705
-1.0778503,-10.198181,0.6513519,1.0650482,2.2702332,-1.0602875
-0.77856445,-10.038208,-0.56144714,0.7012787,2.6593628,-0.8956604
-0.8895874,-10.730682,0.08442688,0.10140991,1.8453827,-1.2044525
-1.6039886,-10.907379,1.6990967,-0.057113647,0.8896637,-1.4060364
-1.408493,-9.921188,-0.3174591,-0.020477295,0.76290894,-1.0297394
-1.2926483,-10.59697,-1.8938293,-0.3063507,0.30140686,-0.053878784
-1.3674622,-12.956207,1.1010742,-0.6963959,-1.7538757,-0.028533936
-1.804306,-14.002106,2.8090363,-0.49113464,-2.6365814,-0.4973755
-1.6474304,-13.620026,2.4238892,-0.13529968,-1.5171509,-1.0505066
-1.1067963,-11.693008,0.75660706,0.016799927,-0.025726318,-1.08992
-0.904068,-10.276993,-0.8413086,-0.22602844,0.86828613,-0.8981018
-1.5822601,-11.626144,0.034194946,-0.5528412,0.547287,-0.6882782
-2.4390717,-12.34491,1.5316467,-0.7831421,-0.06451416,-0.56518555
-2.0504913,-10.348633,2.5506744,-0.7965698,-0.32473755,-0.44299316
-1.2974701,-9.923569,2.2062225,-0.44837952,-0.2923584,-0.23225403
-0.11001587,-9.842392,1.3618164,0.04246521,-0.174469,0.17489624
0.8674774,-9.412582,0.10357666,0.44776917,0.06347656,0.50323486
0.68162537,-10.260269,0.12509155,0.5873413,0.08576965,0.68984985
0.0010070801,-10.479965,0.022247314,0.5109863,0.13128662,0.5976105
-0.645813,-10.210129,0.20881653,0.26420593,0.14624023,0.30836487
-1.8284454,-10.362946,1.3594208,0.040618896,0.05369568,-0.017227173
-3.1558838,-11.587936,2.0507355,0.09957886,0.19786072,-0.017837524
-3.2113953,-10.434586,2.292328,0.28833008,0.7118988,0.19076538
-2.5742188,-8.0849,1.3115692,0.20188904,1.5371857,0.19688416
-2.4559479,-8.111176,0.27818298,-0.34910583,2.3340912,-0.37153625
-2.207367,-8.591141,-0.6164551,-0.703125,2.6618195,-0.659256
-1.7874146,-8.772614,-1.3532257,-0.7858887,2.4745789,-0.6714783
-1.3940125,-9.09259,-1.7933655,-0.9263916,1.8377533,-0.503479
-0.8292389,-9.491379,-2.1115112,-1.1405029,0.99383545,-0.25668335
-0.13897705,-9.515259,-2.1497955,-1.244339,-0.05960083,-0.04196167
0.41854858,-9.68956,-1.8364105,-1.1331635,-1.3149414,0.015151978
0.42338562,-9.7397,-1.2168732,-0.89401245,-2.5455475,-0.062423706
0.6068115,-10.033432,-0.5566559,-0.6301117,-3.2147522,-0.1006012
0.6405945,-10.19342,0.25906372,-0.3894348,-3.1273956,-0.15589905
0.32200623,-9.992828,0.79248047,-0.22969055,-2.3628998,-0.2606659
-0.10519409,-9.851944,0.54611206,-0.08001709,-1.1799469,-0.2679901
-0.30551147,-9.751648,-0.30549622,0.058029175,0.037826538,-0.076171875
-0.18000793,-9.563004,-1.0207214,0.09925842,0.8893738,0.15840149
-0.085876465,-9.584503,-1.5661316,0.092544556,1.2669067,0.22009277
-0.14381409,-9.792252,-1.9153748,0.07147217,1.2613983,0.12388611
-0.1486206,-10.011932,-1.8699188,0.039093018,0.9416199,0.011795044
-0.052078247,-10.026276,-1.3005981,-0.0033721924,0.43092346,-0.041656494
-0.35379028,-10.088333,-0.47294617,-0.039398193,-0.13076782,-0.05570984
-0.6047821,-10.04776,-0.1930542,-0.04612732,-0.43925476,-0.062423706
-0.75201416,-9.921204,-0.40356445,-0.026885986,-0.3366394,-0.057235718
-0.8220062,-9.66568,-0.7575989,0.015579224,-0.034561157,-0.023956299
-0.8678589,-9.608383,-1.1235962,0.06199646,0.21711731,-0.0031738281
-0.8823395,-9.675232,-1.3962708,0.07940674,0.30966187,1.8310547E-4
-0.8147583,-9.715836,-1.5039215,0.05680847,0.25315857,-0.0056152344
-0.77856445,-9.828064,-1.4106293,0.0051879883,0.10746765,-0.01600647
-0.75201416,-9.820892,-1.1355438,-0.049484253,-0.05441284,-0.023635864
-0.7230377,-9.818512,-0.6977844,-0.079422,-0.18147278,-0.02394104
-0.7230377,-9.85672,-0.31744385,-0.06048584,-0.2453003,-0.021194458
-0.75201416,-9.8591,-0.2839508,0.0018310547,-0.21781921,-0.013259888
-0.67477417,-9.763596,-0.6116791,0.058639526,-0.09442139,0.0020141602
-0.6482239,-9.596451,-0.9800415,0.072387695,0.0491333,0.015151978
-0.6265106,-9.529587,-1.1929474,0.0488739,0.11143494,0.01576233
-0.5758362,-9.691956,-1.2599335,0.016494751,0.08119202,0.007827759
-0.49375916,-9.789856,-1.1977386,-9.1552734E-4,0.0014801025,-0.0022583008
-0.38998413,-9.754028,-1.078125,-0.0143585205,-0.058685303,-0.008056641
-0.37791443,-9.739716,-0.98483276,-0.030853271,-0.09442139,-0.018447876
-0.3972168,-9.820892,-0.85806274,-0.042144775,-0.12161255,-0.025161743
-0.36343384,-9.849548,-0.7049713,-0.036346436,-0.14237976,-0.024551392
-0.3006897,-9.818512,-0.66430664,-0.012527466,-0.13748169,-0.028823853
-0.3031006,-9.773148,-0.7862854,0.0119018555,-0.101135254,-0.03982544
-0.34413147,-9.76358,-0.9154663,0.021987915,-0.047698975,-0.04837036
-0.38998413,-9.837616,-0.989624,0.020767212,-0.015930176,-0.04257202
-0.41653442,-9.918808,-0.99679565,0.013748169,-0.015930176,-0.035858154
-0.45031738,-9.863892,-0.9657135,0.0033569336,-0.038223267,-0.029144287
-0.4744568,-9.732544,-0.83891296,-0.0030517578,-0.07670593,-0.021499634
-0.5251465,-9.723007,-0.7719574,0.002746582,-0.09350586,-0.020584106
-0.5251465,-9.765991,-0.8245697,0.0143585205,-0.069381714,-0.022109985
-0.4575653,-9.715851,-0.9441681,0.018936157,-0.027236938,-0.017532349
-0.4189453,-9.694336,-1.0302887,0.0119018555,-0.0037078857,-0.008682251
-0.38034058,-9.682404,-1.0494232,0.002746582,0.00881958,-0.0065307617
-0.34654236,-9.703888,-1.0518188,-0.009475708,0.010955811,-0.010818481
-0.39239502,-9.7827,-1.0183411,-0.02168274,-0.004928589,-0.015686035
-0.44067383,-9.875824,-0.8748169,-0.032684326,-0.031814575,-0.023010254
-0.50102234,-9.871063,-0.6786499,-0.039093018,-0.081588745,-0.030349731
-0.58547974,-9.868668,-0.5542755,-0.031463623,-0.13290405,-0.032791138
-0.6337433,-9.85672,-0.5470886,-0.011306763,-0.14146423,-0.029434204
-0.6530609,-9.83046,-0.6786499,0.007019043,-0.101135254,-0.02545166
-0.59754944,-9.756424,-0.8126068,0.017105103,-0.04953003,-0.007446289
-0.4817047,-9.746872,-0.92025757,0.016494751,-0.031204224,0.007827759
-0.37550354,-9.7612,-0.9322052,0.0051879883,-0.036087036,0.013336182
-0.31033325,-9.756424,-0.9154663,-0.014663696,-0.044326782,0.011505127
-0.28137207,-9.804199,-0.87957764,-0.025650024,-0.05960083,-0.0031585693
-0.32722473,-9.773148,-0.83174133,-0.029632568,-0.09106445,-0.018127441
-0.431015,-9.773148,-0.81022644,-0.029937744,-0.115493774,-0.027908325
-0.54203796,-9.801804,-0.8054352,-0.029006958,-0.114593506,-0.032485962
-0.5903168,-9.768356,-0.8078308,-0.029006958,-0.09901428,-0.032180786
-0.5806427,-9.801804,-0.82458496,-0.02748108,-0.08343506,-0.027893066
-0.5637665,-9.75882,-0.85806274,-0.019241333,-0.06663513,-0.02331543
-0.57341003,-9.749268,-0.9298248,-0.013442993,-0.05593872,-0.020263672
-0.607193,-9.775528,-0.989624,-0.018325806,-0.055023193,-0.020874023
-0.6265106,-9.792236,-1.0111542,-0.029632568,-0.075790405,-0.018127441
-0.5903015,-9.792236,-0.9465637,-0.042755127,-0.11886597,-0.015991211
-0.4961853,-9.816132,-0.8054352,-0.047332764,-0.15856934,-0.013549805
-0.40205383,-9.837616,-0.7336731,-0.041229248,-0.16711426,-0.0059051514
-0.34413147,-9.861496,-0.7815094,-0.027801514,-0.1347351,-0.0010223389
-0.33206177,-9.799408,-0.9106903,-0.010696411,-0.0745697,0.004470825
-0.31756592,-9.703888,-1.0350647,0.003967285,-0.024169922,0.009048462
-0.29104614,-9.71106,-1.1140137,0.009460449,-0.012573242,0.008743286
-0.2620697,-9.75882,-1.1307526,3.0517578E-4,-0.030593872,1.8310547E-4
-0.22827148,-9.799408,-1.068573,-0.02015686,-0.05441284,-0.007751465
-0.24758911,-9.83046,-0.97528076,-0.03451538,-0.067855835,-0.012954712
-0.36102295,-9.828064,-0.8604584,-0.032989502,-0.06877136,-0.017227173
-0.53237915,-9.83284,-0.81022644,-0.018630981,-0.065093994,-0.018447876
-0.5637665,-9.801804,-0.84609985,-0.0051879883,-0.06112671,-0.017837524
-0.52030945,-9.7612,-0.93460083,-0.0015258789,-0.042495728,-0.014785767
-0.4334259,-9.78508,-0.989624,-0.0018310547,-0.022644043,-0.004699707
-0.39239502,-9.818512,-1.0183411,-0.0024414062,-0.0015716553,0.0017089844
-0.38034058,-9.820892,-0.9824524,-0.0021362305,-0.006149292,0.0041503906
-0.38757324,-9.801804,-0.951355,-0.0024414062,-0.026611328,0.003540039
-0.4237671,-9.763596,-0.9298248,-0.005493164,-0.035476685,0.002319336
-0.44308472,-9.763596,-0.91548157,-0.0018310547,-0.04005432,-0.0022583008
-0.431015,-9.749268,-0.92025757,0.0036621094,-0.032730103,-0.0037841797
-0.4358368,-9.7827,-0.951355,0.0076293945,-0.023254395,-4.272461E-4
-0.4744568,-9.823288,-0.9872284,0.00642395,-0.011047363,-0.0016479492
-0.49134827,-9.823288,-0.98483276,0.0024414062,-0.010131836,-0.001953125
-0.5010071,-9.797028,-0.951355,0.0,-0.024475098,0.0017089844
-0.4720459,-9.794632,-0.90589905,0.0021362305,-0.036392212,0.005065918
-0.44308472,-9.806564,-0.91308594,0.0073242188,-0.02142334,0.007522583
-0.4189453,-9.83522,-0.9704895,0.010681152,0.003616333,0.009963989
-0.40446472,-9.818527,-0.9633179,0.011917114,0.0066833496,0.011169434
-0.38275146,-9.797028,-0.8915405,0.0116119385,-0.004623413,0.015151978
-0.37309265,-9.816132,-0.81500244,0.017715454,-0.011962891,0.019119263
-0.38998413,-9.777908,-0.81022644,0.030227661,0.006668091,0.020645142
-0.41412354,-9.7397,-0.89393616,0.040618896,0.047912598,0.021255493
-0.46479797,-9.746872,-1.0207214,0.04336548,0.07447815,0.02003479
-0.48410034,-9.73494,-1.0924835,0.036956787,0.06593323,0.019119263
-0.508255,-9.756424,-1.0924835,0.029922485,0.021331787,0.019119263
-0.52030945,-9.7827,-1.0350647,0.019851685,-0.018066406,0.014846802
-0.5010071,-9.789871,-0.93460083,0.006713867,-0.03303528,0.0154418945
-0.47927856,-9.80896,-0.82458496,0.0012207031,-0.0256958,0.01789856
-0.4358368,-9.83284,-0.7408447,0.010070801,-0.016235352,0.019119263
-0.5010071,-9.680008,-0.78868103,0.020767212,-0.031814575,0.02796936
-0.44548035,-9.713455,-0.88197327,0.033599854,-0.038528442,0.016983032
-0.3972168,-9.742096,-0.951355,0.037261963,0.033554077,0.019424438
-0.4092865,-9.806564,-1.0111542,0.043670654,0.025604248,0.019729614
-0.49375916,-9.885376,-1.0183411,0.040924072,0.014007568,0.015151978
-0.5540924,-9.8806,-0.9657135,0.032073975,0.019500732,0.01210022
-0.5999603,-9.861496,-0.8652344,0.017410278,-0.03944397,0.010559082
-0.55892944,-9.811356,-0.7934723,0.002746582,0.022857666,0.038970947
-0.5106659,-9.777924,-0.78630066,0.02748108,-0.13963318,0.007507324
-0.5154877,-9.775528,-0.8484955,0.03817749,-0.06112671,0.0059814453
-0.57341003,-9.694336,-0.9082947,0.03175354,0.030807495,0.025238037
-0.6723633,-9.668076,-0.951355,0.034820557,0.039657593,0.019119263
-0.6989136,-9.670471,-0.9393921,0.031448364,-0.012878418,0.017288208
-0.66996765,-9.701508,-0.83174133,0.022598267,-0.044952393,0.017593384
-0.58306885,-9.746872,-0.7384491,0.016799927,-0.05319214,0.020339966
-0.56134033,-9.775528,-0.7049713,0.019226074,-0.022033691,0.022781372
-0.57099915,-9.801804,-0.7408447,0.031143188,-0.03303528,0.018814087
-0.5806427,-9.83522,-0.8197937,0.037872314,-0.006454468,0.019729614
-0.5806427,-9.837616,-0.87002563,0.03543091,-0.001876831,0.024002075
-0.5782471,-9.840012,-0.86763,0.030532837,-0.035476685,0.023391724
-0.56858826,-9.892548,-0.7599945,0.024734497,-0.059295654,0.024612427
-0.5154877,-9.923584,-0.6738739,0.022903442,-0.072128296,0.026443481
-0.4479065,-9.894913,-0.61647034,0.028701782,-0.07640076,0.021560669
-0.46238708,-9.718216,-0.64276123,0.044891357,-0.056549072,0.015457153
-0.47447205,-9.71106,-0.7575836,0.051605225,-0.02998352,0.014541626
-0.645813,-9.6203,-0.83891296,0.044281006,-0.008895874,-0.0010375977
-0.5637665,-9.691956,-0.7815094,0.041229248,-0.05899048,-0.016311646
-0.7109833,-9.660919,-0.81500244,0.059249878,-0.060516357,-0.015701294
-1.0005951,-9.770752,-0.8173981,0.068099976,-0.13749695,-0.023330688
-1.3095398,-9.797028,-0.8054352,0.041229248,-0.2205658,-0.027297974
-1.4278107,-9.572571,-1.0566101,0.009460449,-0.2828827,-0.017837524
-1.4929657,-9.450775,-1.3508301,0.0045776367,-0.33480835,-0.011428833
-1.5050354,-9.632263,-1.5111084,0.009765625,-0.38856506,-0.0025634766
-1.261261,-9.847168,-1.3484344,0.0015258789,-0.41818237,-0.017837524
-1.0271454,-9.899704,-1.1475067,-0.041229248,-0.2972412,-0.048080444
-0.8026886,-9.820892,-0.79107666,-0.10934448,-0.14329529,-0.023956299
-0.52030945,-9.897308,-0.2361145,-0.13989258,-0.15611267,0.021865845
-0.33206177,-9.995224,0.22079468,-0.071777344,-0.33998108,0.027359009
-0.40446472,-10.019104,0.36431885,0.047348022,-0.50523376,-0.0040893555
-0.7206421,-9.799408,-0.03994751,0.13041687,-0.4572754,-0.030670166
-1.123703,-9.605988,-0.75520325,0.16401672,-0.22361755,-0.057540894
-1.408493,-9.555832,-1.4202118,0.17562866,-0.007080078,-0.07098389
-1.4833221,-9.560623,-1.8316345,0.16859436,0.076919556,-0.07281494
-1.4060822,-9.551071,-2.00148,0.1459961,0.043930054,-0.06793213
-1.3457336,-9.560623,-1.9512482,0.10598755,-0.07672119,-0.06640625
-1.2757416,-9.648972,-1.5350189,0.033294678,-0.25234985,-0.064575195
-1.1454163,-9.892548,-0.4131317,-0.061706543,-0.46646118,-0.066711426
-1.0319824,-10.138489,0.7231293,-0.096832275,-0.727005,-0.10092163
-0.9837189,-10.105057,0.8570709,-0.0042877197,-0.8583374,-0.14489746
-1.1960907,-10.016708,0.25427246,0.11941528,-0.6570587,-0.16841125
-1.5315857,-9.909256,-0.26483154,0.22601318,-0.3684082,-0.13879395
-1.7994843,-9.906876,-0.41073608,0.31184387,-0.27983093,-0.07861328
-2.031189,-10.004761,0.053329468,0.3726349,-0.42492676,-0.040130615
-2.1132507,-10.019104,0.9527588,0.42210388,-0.60635376,-0.0065460205
-2.2580414,-9.921204,1.864151,0.5149536,-0.6857605,0.031951904
-2.3328705,-9.548676,2.4262848,0.707077,-0.6637726,0.10159302
-2.3135529,-9.200043,2.7994537,0.9859314,-0.6008606,0.20176697
-2.2266846,-9.309891,3.2898407,1.2953491,-0.5516815,0.31385803
-2.0625458,-10.169525,3.8137054,1.5571136,-0.4530182,0.40151978
-2.1446075,-11.907913,4.1892548,1.6484375,-0.14300537,0.4549713
-2.6828308,-13.569885,4.100754,1.5858154,0.4177704,0.56217957
-3.2500153,-13.2547,3.3735504,1.4239349,1.0805664,0.8034668
-3.040039,-11.093643,-0.14759827,1.0054932,1.6245575,1.1110535
-2.8879852,-9.40303,-4.092163,0.16127014,2.0726166,1.3651733
-3.655487,-8.23056,-1.0876923,-0.71868896,1.7250366,1.547821
-3.7882233,-7.7267303,0.62742615,-0.21289062,0.8044586,1.7533722
-3.281372,-7.626419,-1.4202118,1.0461121,-0.15431213,1.8462372
-4.0344086,-8.13266,-0.6068878,1.1921082,-0.9530182,1.6061554
-4.553299,-8.216232,0.8498993,0.61361694,-1.2679291,1.3398285
-3.6892853,-7.8341827,-0.2959137,-0.0076446533,-1.1255798,1.1522827
-2.4052734,-7.884308,0.22319031,-0.5632324,-1.431015,0.85417175
-1.5750275,-7.9822235,0.9121094,-0.6817322,-1.8039398,0.48521423
-0.904068,-7.8341827,1.1249847,-0.39797974,-1.6738281,0.15901184
0.01789856,-7.504654,1.3235321,-0.016799927,-1.454834,-0.09970093
0.8191986,-7.337494,1.5483856,0.26480103,-1.5079803,-0.330307
1.497406,-7.2348175,2.1296692,0.19792175,-1.8897705,-0.432312
2.0597534,-7.2634583,3.304184,-0.25932312,-2.1167145,-0.36297607
1.7918396,-7.5141907,4.3519287,-0.7797699,-1.792038,-0.2154541
0.6864624,-7.6813507,4.4978485,-1.0626068,-1.0333405,-0.11679077
-0.66996765,-8.08252,4.371063,-1.1502686,-0.26669312,-0.13879395
-2.0915222,-9.073486,4.457184,-1.1988373,0.3542633,-0.16566467
-3.474472,-10.752182,4.9810333,-1.2080078,0.9046478,-0.14674377
-4.9998016,-12.383118,3.816101,-1.0677948,1.6499176,-0.12901306
-6.595154,-12.650558,2.280365,-0.857666,2.1884003,-0.116485596
-7.688492,-11.974777,1.0604095,-0.55833435,1.6673279,0.025848389
-8.08429,-12.089386,0.7422638,-0.4083557,0.4648285,0.28607178
-8.130157,-16.282547,1.5173035,-0.5342102,-0.31311035,0.43237305
-8.3160095,-19.737823,3.5912476,-0.36895752,-0.24012756,0.31936646
-5.5187225,-14.508331,1.1321564,0.08766174,0.3728943,0.14678955
-1.6860504,-8.199524,-3.831421,-0.02017212,1.0106354,-0.13482666
0.6068115,-3.4285126,-1.7096558,-0.6142273,0.5631714,-0.6192322
2.839325,0.05781555,4.2036133,-0.8497162,0.20948792,-1.1943817
4.0122986,0.12947083,3.1726227,-0.0748291,0.7174225,-1.8703003
4.0822906,-3.1491241,0.90971375,0.79626465,0.745224,-2.5599823
4.181244,-8.868134,-0.36050415,0.69607544,0.08547974,-2.7621765
3.4402924,-14.689819,-1.1905518,-0.2932129,-0.7120209,-2.4713898
2.8151855,-17.629318,-1.9512482,-0.93769836,-0.5220337,-1.839447
1.7990875,-15.305893,-1.9464569,-1.0726929,-0.029373169,-0.8828125
0.73472595,-10.835754,-1.8675232,-0.9563141,0.31698608,0.03074646
-0.09310913,-8.689041,-1.7263794,-0.7367096,0.3738098,0.51148987
-0.75201416,-7.784027,-1.5015411,-0.4181366,0.19390869,0.7451477
-1.4953766,-7.8198547,-1.3197479,-0.1802063,5.645752E-4,0.8517456
-2.1591034,-8.438309,-1.0494232,-0.04826355,-0.12130737,0.91589355
-2.5428467,-9.023346,-0.70018005,-0.027191162,-0.090148926,0.9534607
-2.538025,-9.235855,-0.05670166,-0.090408325,0.13250732,0.8786316
-1.9877319,-8.901566,1.0867157,-0.23487854,0.62457275,0.60588074
-1.7077637,-9.16423,0.031799316,-0.5171051,1.6569366,1.9836426E-4
-1.9804993,-9.703888,-0.9991913,-0.6539459,2.3533325,-0.6155548
-2.2966614,-9.959396,-1.6283112,-0.51924133,2.2238312,-0.7554474
-2.3883972,-9.572571,-1.7909698,-0.29719543,1.6819916,-0.55049133
-2.0191193,-8.877686,-0.91308594,-0.115448,0.9681854,-0.32173157
-0.8388977,-8.552933,4.1964417,-0.03451538,0.52835083,-0.3031006
-0.88475037,-9.481827,3.165451,0.17012024,1.3127136,-0.46987915
-2.9555511,-10.021484,-1.8244629,0.20158386,2.4211426,-0.5410309
-4.2226715,-10.233994,-2.8769836,0.07727051,1.7778931,-0.46803284
-4.604004,-9.488983,-2.5827484,0.07054138,0.6166229,-0.15312195
-4.883972,-8.794098,-2.0995636,0.1631012,-0.31036377,0.18833923
-5.325653,-8.576813,-1.5924377,0.2892456,-0.82899475,0.433609
-6.011078,-9.123642,-1.4297638,0.41325378,-0.9557495,0.5588379
-7.0102844,-10.950378,-1.2049103,0.41264343,-0.78134155,0.6235962
-7.3699036,-13.987778,1.2541656,0.25350952,-0.42918396,0.79859924
-5.5597534,-15.169785,4.4045563,0.027496338,0.5778351,1.2463837
-2.7335205,-14.016434,5.327896,0.044296265,2.64563,1.6504517
-0.8244171,-12.758011,4.5313263,0.89645386,3.9516754,1.422287
-1.0633698,-11.38974,-0.4131317,2.3567352,3.6049957,1.1706085
-0.3006897,-9.04483,-0.9872284,2.3674316,1.8282928,1.4403076
0.18927002,-7.5906067,-0.106933594,1.1823425,0.58088684,1.5637054
0.34373474,-7.8102875,1.3976898,0.5650482,0.29621887,1.335846
-0.33206177,-9.417343,1.414444,0.5403137,0.77545166,0.9687042
-1.0826721,-10.159973,-2.8171844,0.67256165,1.4797821,0.8431854
-1.8670502,-10.279373,-2.9343872,0.24128723,1.1007385,0.956192
-3.184845,-10.229233,0.6800537,-0.38363647,0.21894836,1.0441589
-3.759262,-9.290787,0.38822937,-0.3564453,-0.098083496,1.1287689
-3.7568512,-8.225784,-1.2599335,-0.04399109,-0.31251526,1.2622375
-3.9571686,-7.9583435,-1.8412018,-0.018325806,-0.7856293,1.3544769
-3.8823395,-8.579193,-1.1929474,-0.14569092,-1.4404755,1.3810577
-3.4020538,-9.118851,-0.3820343,-0.27734375,-1.8867188,1.2527771
-2.6345673,-9.343323,-0.37008667,-0.3555298,-1.960022,0.84410095
-1.2709045,-8.502792,-0.7049713,-0.5867462,-1.7391968,0.31202698
0.1096344,-7.0390015,-0.774353,-0.9349365,-1.4487305,-0.11741638
1.1884766,-5.66835,-0.41552734,-1.1423187,-1.3109741,-0.53279114
1.7918396,-4.944824,-0.09976196,-1.0531464,-1.4453583,-0.945755
2.0718231,-4.944824,-0.03756714,-0.82925415,-1.572113,-1.2762299
2.0525055,-5.902359,0.6633148,-0.77671814,-1.3586121,-1.5074463
1.820816,-7.683731,1.9885254,-0.9187622,-0.7181244,-1.630539
0.3895874,-10.071625,2.615265,-1.0806274,0.11663818,-1.5966339
-4.186447,-13.276184,3.883072,-1.0097656,0.5576782,-1.322052
-8.489777,-16.175095,4.2969055,-0.31430054,0.23513794,-0.5172272
-10.869507,-15.81929,4.256241,0.60995483,-0.5846405,0.70695496
-10.362671,-12.132385,0.15620422,0.4511261,-0.08770752,1.5774536
-9.102814,-9.083038,-6.3718414,-0.46243286,1.1294556,1.212143
-8.977295,-13.216476,-6.2593994,-0.9242401,0.108688354,-0.024261475
-9.269348,-18.414932,4.6844177,-0.70677185,-2.0974731,-1.1485596
-5.926605,-13.777649,3.6964874,0.10293579,-0.7049866,-0.95765686
-1.3578033,-7.6908875,0.31169128,0.65179443,1.3502808,-0.27348328
1.0339966,-4.4147186,-1.9680023,0.17227173,1.8536377,-0.17849731
1.8883972,-3.2159882,-1.0876923,-1.0598602,1.2797241,-0.4262085
2.9575806,-2.688263,0.2877655,-1.2498474,0.33348083,-1.0214996
2.6027985,-3.5813293,-0.20501709,-0.31887817,-1.7046814,-1.6815338
0.7395477,-6.6545563,-1.8770905,0.5430603,-3.734909,-2.1638184
0.27615356,-11.053055,-3.0109558,0.44195557,-4.319809,-1.9011536
0.056518555,-14.809219,-3.1568604,0.076049805,-4.645706,-1.2078094
0.4933777,-15.198441,-2.1474,-0.39370728,-4.670761,-0.38986206
1.0798645,-11.53064,-0.81500244,-0.70921326,-4.1173096,0.21948242
0.95436096,-8.428772,-0.5781708,-0.74679565,-2.816452,0.24391174
0.42338562,-6.8623047,-0.9680939,-0.7217407,-1.500946,-0.033721924
-0.8026886,-7.4210663,-1.8172913,-0.7388458,-0.5660248,-0.2789917
-1.6353607,-9.028122,-2.013443,-0.79566956,-0.27005005,-0.25820923
-1.6112366,-10.069244,-2.0086517,-0.9108124,-0.05014038,0.02859497
-1.0343933,-10.164764,-1.8268433,-1.1734772,0.4602356,0.18435669
-0.79304504,-9.813736,-1.568512,-1.3375092,0.7094879,0.009033203
-0.50341797,-9.794632,-1.1044464,-1.4419556,0.6832123,-0.27256775
1.2753601,-10.601746,3.3065796,-1.4590607,0.13587952,-0.3919983
0.0034179688,-10.84053,5.0982513,-0.8182678,-2.6658783,-0.45429993
-1.0392151,-10.212509,2.514801,-0.58613586,-2.1613007,-0.47843933
-2.089096,-9.925964,-0.6738739,-0.5,0.6068573,-0.5218048
-2.709381,-9.503311,-1.568512,-0.23764038,1.9834442,-0.38252258
-3.8099518,-8.80127,1.457489,-0.06474304,2.0005493,-0.16627502
-5.2725525,-9.517639,2.8975372,-0.11668396,1.9321442,-0.030670166
-5.4173584,-10.67099,0.024627686,0.10171509,1.3985443,0.10800171
-5.214615,-10.642334,-1.3364716,0.5534363,0.30325317,0.3816681
-5.649048,-10.143265,0.024627686,0.63682556,-0.31770325,0.5740967
-6.945114,-10.613678,1.2326355,0.35765076,-0.083740234,0.63853455
-9.018326,-12.430862,3.6701813,0.38423157,0.2931671,0.8996887
-9.023163,-12.24939,1.5484009,1.2144165,0.5054474,1.5447693
-7.927414,-11.110367,-0.97288513,2.276413,0.13008118,2.161438
-6.8703003,-10.291321,-1.5015259,2.929123,-0.63412476,2.392044
-6.3441467,-12.755615,0.7972717,3.1300964,-1.2202606,2.2994843
-4.237152,-14.498795,0.29493713,2.88208,-0.8012085,2.4097595
-1.2057648,-13.784805,-3.7859802,2.1682892,0.13374329,2.5117798
0.26167297,-14.931,-5.4102173,1.0913239,0.44129944,1.712143
0.7829895,-14.360275,-5.283432,-0.25473022,0.74308777,0.4281006
-2.6490326,-12.820099,2.8114166,-1.2837524,0.9293976,-0.5007324
-3.9909515,-11.263184,1.5938416,0.43249512,-0.5831146,-0.019683838
-4.2516174,-11.076935,-0.06866455,2.7260132,-2.243164,1.5594177
-4.521942,-11.759872,-0.3939972,2.5702362,-2.149704,2.7857513
-3.6144562,-10.704422,-1.975174,1.4416504,-1.7190399,3.3883667
-2.4559479,-8.194748,-1.1546783,0.25045776,-1.9139099,3.281784
-2.1808167,-6.3154907,-0.05430603,-0.17349243,-1.8405914,2.5352936
-0.91130066,-5.1812134,0.30929565,0.038482666,-0.99850464,1.6687775
0.25683594,-4.937668,0.43606567,0.30360413,-0.009811401,0.9543762
1.5046387,-4.4051514,0.5006561,0.5247345,0.3347168,0.47270203
2.2142181,-3.9466858,0.40257263,0.52259827,-0.10021973,0.19476318
2.1297455,-3.325821,0.3403778,0.043685913,-0.46948242,0.12176514
1.2898407,-2.6787262,-0.04234314,-0.51039124,-0.3436432,0.15414429
0.90367126,-2.1844177,-0.0064697266,-0.83078,-0.14297485,-0.036453247
0.2447815,-2.4160461,0.14663696,-1.0125122,-0.06478882,-0.59295654
-0.6699524,-3.5001373,-0.15718079,-1.2834473,0.23912048,-1.2035217
-1.5050354,-5.4295654,0.12988281,-1.6520996,0.3784027,-1.6882477
-2.895218,-8.703369,0.9407959,-1.8723145,0.2876892,-2.0944824
-5.13739,-13.4027405,1.3665924,-1.5232086,-0.31951904,-2.356842
-7.213028,-16.320755,1.7971649,-0.96029663,-1.4111328,-2.2896576
-8.436676,-15.525589,2.8520813,-1.2843475,-1.8390656,-1.9552002
-8.745605,-12.8965,5.634079,-2.1585083,-0.9477997,-1.5520172
-8.325653,-12.268494,4.182083,-2.1194153,0.66825867,-1.2368164
-6.7665253,-15.668854,3.5792694,-1.2477112,1.650238,-0.98757935
-2.9917603,-17.25679,3.320938,-0.34973145,1.3787079,-0.76431274
-0.34170532,-15.898087,2.103363,-0.18449402,0.6969757,-0.72979736
0.29788208,-15.0121765,1.1106415,-0.4789276,0.46820068,-0.9277191
-0.16311646,-13.665405,0.97428894,-0.38668823,0.5552521,-1.2096252
0.073410034,-9.173782,-0.24328613,0.07421875,0.38208008,-1.0853271
0.766098,-5.49881,-1.8316345,0.2758026,0.6404724,-0.8666229
0.83125305,-3.3998566,-1.934494,0.19395447,0.97003174,-0.97016907
0.27615356,-3.8272858,-2.3363647,0.08062744,0.9929352,-1.1442719
-0.3827362,-6.730957,-3.5730896,-0.039108276,0.71469116,-1.0605774
-0.6772003,-10.79277,-4.7858734,-0.13256836,-0.0055389404,-0.6396942
-0.8702698,-14.536987,-4.577759,-0.25839233,-0.910553,-0.16566467
-0.7978668,-15.253357,-3.0611877,-0.39889526,-1.4029083,0.16542053
-1.0223236,-12.194458,-1.190567,-0.6139221,-1.1283264,0.11135864
-1.480896,-9.262131,-0.18588257,-0.85032654,-0.30059814,-0.22247314
-2.5935364,-6.4014435,10.657486,-1.0393982,0.4880371,-0.38191223
-1.6401978,-6.489792,5.5814514,-0.4263916,3.271164,-0.33273315
-1.1743774,-9.379135,-2.6616974,0.5775757,5.442505,-0.140625
-1.5171051,-10.659058,-4.6638794,0.6322479,3.7971191,0.12968445
-1.9370575,-10.630402,-4.5179596,0.23365784,1.1532745,0.1816101
-2.2001343,-11.193939,-3.247757,0.013137817,-0.8968048,-0.06854248
-2.2025452,-11.119919,-1.9440613,-0.17623901,-2.054718,-0.2536316
-1.8791199,-10.064453,-0.92025757,-0.4303589,-2.3644257,-0.24598694
-1.2250671,-8.770218,-0.05670166,-0.6264496,-2.1093903,-0.16873169
-0.7640686,-8.187576,0.802063,-0.70433044,-1.4704132,-0.16444397
0.34373474,-8.266388,7.191345,-0.6594391,-0.45361328,-0.21972656
-0.018295288,-9.763596,3.4955444,-0.181427,2.1312714,-0.24691772
-1.0175018,-11.210648,-1.5087128,0.27642822,4.246414,0.011489868
-1.0754242,-10.76889,-2.0995483,0.30818176,4.1499023,0.40792847
-0.9957886,-9.171387,-1.2790527,0.3335266,3.3328552,0.4684143
-1.5822601,-8.445465,-1.9990845,0.5222931,2.4693909,0.20146179
-2.3449402,-8.942154,-3.0970612,0.7229614,1.4397736,-0.04899597
-2.5911102,-9.130814,-2.953537,0.7480011,0.15756226,-0.040145874
-2.7069702,-9.4292755,-2.5110016,0.6408081,-0.96276855,0.10067749
-2.8131561,-9.715836,-1.9823456,0.42271423,-1.7193298,0.26164246
-2.608017,-9.768356,-1.1020508,0.18417358,-2.095337,0.42259216
-2.27977,-10.162369,-0.3868103,0.035736084,-1.9673615,0.5249176
-1.6450195,-10.785614,0.26863098,-0.05558777,-1.3705139,0.5649414
-0.20414734,-11.946136,5.5862427,-0.13500977,-0.37449646,0.52249146
1.5891113,-12.139542,6.3445435,-0.0045776367,2.0305023,0.40582275
2.255249,-11.62854,2.1224976,0.44439697,4.90007,0.26438904
1.8666534,-10.697266,-1.5948181,0.78526306,5.353943,0.17887878
1.3767242,-9.109314,-3.776413,0.7663269,3.7323914,0.27752686
1.2150116,-7.9105835,-3.5419922,0.35185242,1.2369843,0.33465576
0.95677185,-7.865219,-2.8961182,0.03543091,-0.6903229,0.0695343
0.42338562,-8.708145,-2.4105377,-0.15667725,-1.75383,-0.30126953
0.0058288574,-9.269302,-1.8555603,-0.37078857,-2.3262177,-0.4558258
-0.25482178,-9.173782,-1.1594696,-0.59742737,-2.550415,-0.43351746
-0.61686707,-8.97081,0.8809967,-0.7971802,-2.4514465,-0.3791504
-0.41653442,-8.576813,5.110214,-0.8225403,-1.9016724,-0.33883667
0.5971527,-8.555328,2.8688354,-0.39492798,-0.47192383,-0.32876587
0.6381836,-9.33139,0.22317505,-0.1359253,0.22262573,-0.3409729
0.8578186,-10.952759,-0.49923706,-0.2672577,-0.11029053,-0.27194214
1.062973,-12.607574,0.22317505,-0.4386139,-0.8161621,-0.27011108
1.2946625,-13.292908,1.4263916,-0.44380188,-1.267273,-0.31776428
1.0605469,-12.08223,1.5986328,-0.28375244,-1.0681458,-0.31684875
0.5730133,-10.589798,0.802063,-0.104766846,-0.29415894,-0.2096405
0.2544403,-9.651352,0.4073639,-0.03970337,0.6062622,-0.09814453
-0.31756592,-9.157074,0.18728638,0.014663696,1.2971497,-0.10670471
-1.4833221,-9.422119,-0.3317871,0.14630127,1.5549316,-0.20506287
-2.3666534,-9.503311,-1.6809387,0.31886292,1.3701477,-0.21147156
-2.7745514,-9.052002,-2.4057465,0.38056946,0.7644806,-0.010192871
-3.2282867,-8.927826,-2.1186981,0.28894043,-0.029968262,0.21492004
-3.9885406,-9.83046,-1.6211395,0.09347534,-0.6585541,0.32670593
-4.782593,-10.771286,-1.3029938,-0.21165466,-0.93955994,0.31661987
-5.07222,-10.384445,-0.83174133,-0.51005554,-0.9710083,0.23873901
-4.5098724,-8.684265,0.69680786,-0.67041016,-0.85035706,0.11534119
-3.5034332,-8.304581,1.6440735,-0.67774963,-0.33998108,-0.075546265
-3.2017365,-8.887238,-0.53752136,-0.4159851,0.39276123,-0.11740112
-2.7142181,-9.154678,-1.606781,-0.06687927,0.2806549,0.049987793
-2.0697937,-9.288391,-1.3914948,0.13409424,-0.317688,0.1761322
-1.6136475,-9.477051,-1.1738281,0.17105103,-0.7150574,0.12176514
-1.2854004,-9.725388,-0.9250488,0.08706665,-0.8390503,0.003250122
-1.0947266,-9.957016,-0.7384491,0.007949829,-0.7407074,-0.14060974
-0.9933624,-9.861496,-0.7623749,-0.06350708,-0.47711182,-0.23345947
-1.1140289,-9.625092,-0.96810913,-0.13833618,-0.18267822,-0.21757507
-1.2950592,-9.417343,-1.3914948,-0.17744446,-0.0113220215,-0.048065186
-1.2685089,-9.324219,-1.6354828,-0.15698242,-0.08616638,0.14527893
-1.4615936,-9.660919,-1.6426544,-0.095581055,-0.38059998,0.09945679
-1.5870819,-9.968948,-1.3556213,-0.11024475,-0.6832886,-0.0022583008
-1.4833069,-9.959412,-0.97528076,-0.27824402,-0.78256226,-0.030044556
-1.4977875,-9.789856,-0.83413696,-0.48806763,-0.67596436,-0.08868408
-1.6643219,-9.911636,-0.9011078,-0.51708984,-0.577301,-0.1742096
-1.7463837,-9.739716,-0.8006439,-0.40438843,-0.57974243,-0.22215271
-1.7415619,-9.207199,-0.75520325,-0.34848022,-0.6243439,-0.22489929
-1.9829102,-9.11409,-1.1188049,-0.34605408,-0.68573,-0.2624817
-2.3618317,-9.517639,-1.4967499,-0.25959778,-0.8986206,-0.3373108
-2.6200867,-9.909256,-1.5326233,-0.14170837,-1.2336884,-0.35380554
-2.5138855,-9.830444,-1.2384033,-0.060775757,-1.477417,-0.29943848
-2.414917,-9.462723,-1.2527618,-0.07330322,-1.4102325,-0.26644897
-2.4728546,-9.180954,-1.5398102,-0.12400818,-1.1744232,-0.23925781
-2.2483978,-8.908737,-1.7383423,-0.092544556,-1.0241547,-0.17390442
-2.1421967,-9.123642,-1.8818665,-0.07637024,-0.89160156,-0.16442871
-2.0529022,-9.52002,-1.97995,-0.17196655,-0.6845093,-0.15283203
-1.7946625,-9.749268,-1.9727783,-0.3408661,-0.4621582,-0.11709595
-1.558136,-9.723007,-2.0277863,-0.49969482,-0.27522278,-0.12075806
-1.3047028,-9.577332,-2.0565033,-0.59742737,-0.23735046,-0.15618896
-1.0754242,-9.491379,-1.9440613,-0.65026855,-0.3607483,-0.20230103
-0.93544006,-9.434067,-1.6761475,-0.69181824,-0.56692505,-0.24995422
-0.8413086,-9.572556,-1.2049103,-0.6692047,-0.83843994,-0.29119873
-1.015091,-9.71106,-0.6595154,-0.51434326,-1.121582,-0.33914185
-1.5171051,-9.637039,-0.6953888,-0.30116272,-1.2003937,-0.35868835
-2.0335846,-9.715851,-1.3149567,-0.1459961,-0.9817047,-0.35350037
-2.1711578,-9.4531555,-1.6713715,-0.04397583,-0.7923279,-0.313797
-1.9442902,-8.96843,-1.7861786,-0.0048828125,-0.7098541,-0.27072144
-1.7126007,-9.200043,-1.9560242,0.022598267,-0.62831116,-0.2725525
-1.480896,-9.465103,-1.8699188,0.02381897,-0.5189667,-0.2872162
-1.1743774,-9.4292755,-1.5589447,-0.06474304,-0.2978363,-0.30096436
-0.8220062,-9.441238,-0.8556671,-0.26878357,0.016464233,-0.30218506
-1.2564392,-8.942154,-0.07823181,-0.46670532,0.18414307,-0.31410217
-2.496994,-8.7535095,-0.7025757,-0.44380188,-0.0033874512,-0.4387207
-3.36586,-10.324753,-2.384201,-0.23304749,-0.39526367,-0.54011536
-4.106827,-11.881653,-3.4654388,-0.09315491,-0.94291687,-0.473526
-3.908905,-11.139023,-2.908081,-0.124923706,-1.6243286,-0.29333496
-3.4310303,-10.91217,-2.207199,-0.45143127,-1.8912811,-0.23529053
-2.7793732,-11.322876,-0.85806274,-0.82925415,-1.7981262,-0.27072144
-1.4977875,-10.945602,1.4694672,-0.8656006,-1.8124847,-0.22001648
-0.8388977,-10.582642,2.1607666,-0.3738556,-2.0137634,-0.19223022
-0.75683594,-9.976105,1.696701,0.37538147,-2.1866455,-0.05996704
-1.2057648,-9.775528,1.1871796,0.98960876,-2.097458,0.0771637
-1.9877319,-9.902084,0.32125854,1.4196472,-1.7312317,0.25431824
-2.8011017,-10.119385,-0.93460083,1.7147064,-1.1209717,0.45040894
-3.6458282,-10.563538,-2.1593628,1.9837952,-0.7458954,0.6263428
-3.8461456,-10.647125,-3.3482208,2.2654114,-0.88212585,0.7915802
-3.332077,-10.635162,-3.8625336,2.3292542,-1.4031982,0.9308624
-2.9459076,-11.480484,-2.1880646,2.0195312,-1.7700195,0.9363556
-2.7914429,-11.891205,-0.69299316,1.5650482,-1.3732605,0.9339142
-2.8638458,-11.647644,0.33798218,1.1569824,-0.24468994,0.9901123
-3.5372162,-11.521072,1.9646149,0.8625488,1.0311279,1.0646362
-3.7375488,-11.384979,0.37864685,1.1148376,1.7403412,1.3441162
-2.3521729,-10.91217,-1.3197327,1.5234985,0.8628235,1.6944427
-1.2491913,-10.654282,-0.6475525,1.3408508,-0.6435852,1.6501617
-1.377121,-10.448914,0.7279053,0.7806854,-1.4422913,1.3502197
-1.7319031,-10.14328,0.84033203,0.42515564,-1.1157837,1.2381287
-1.2467804,-9.560623,0.5413208,0.38331604,-0.34516907,1.3590698
-0.72787476,-8.973206,0.20883179,0.5699463,0.25776672,1.4042816
-0.32240295,-8.285477,-0.21937561,0.8136749,0.3994751,1.2958527
-0.11483765,-7.4640503,-0.11172485,0.8946228,0.023803711,1.1287842
0.070999146,-6.489792,0.44802856,0.7241821,-0.4401703,0.9415436
0.16030884,-5.5489655,0.5747986,0.36468506,-0.5183563,0.7179718
0.119277954,-4.698868,0.17771912,-0.029022217,-0.28468323,0.4180298
-0.035202026,-4.345459,0.041366577,-0.31762695,-0.21351624,0.014251709
-0.28137207,-4.2809906,0.11074829,-0.46975708,-0.32377625,-0.40756226
-0.6772003,-4.3096466,0.37864685,-0.5888672,-0.40594482,-0.7847595
-1.4302216,-4.5818634,0.82359314,-0.7284546,-0.30178833,-1.0865326
-3.1486359,-6.2677155,1.2685242,-0.8093872,-0.13378906,-1.2835541
-5.4125214,-9.947449,3.4070435,-0.67988586,-0.18205261,-1.241394
-8.366684,-14.505951,7.081299,-0.14202881,-0.353714,-0.8742676
-10.674011,-16.829361,6.4832764,0.35829163,-0.01651001,-0.33485413
-10.391617,-13.985382,4.8088226,-0.5702362,0.81518555,0.105270386
-8.832489,-8.889618,5.6532288,-1.7211151,1.3200684,0.09609985
-7.500229,-6.6139526,3.2539673,-1.3240509,1.4605713,-0.19650269
-5.4559784,-9.813736,-0.29830933,-0.36987305,0.94255066,-0.44299316
-4.0633698,-13.457657,-1.850769,-0.25624084,0.45477295,-0.86479187
-2.5886993,-15.12442,-1.6139679,-0.6713257,0.18080139,-1.2594147
-2.489746,-15.707062,5.5312195,-0.9107971,-0.47099304,-1.4860382
-1.0706024,-9.937912,-0.011260986,-0.36499023,-0.97740173,-1.0639496
0.739563,-6.351288,-2.4559784,-0.6404877,-1.0873566,-0.6729889
1.3791351,-4.655884,-1.3675842,-1.3292389,-0.8417969,-1.0028534
0.90367126,-4.713196,-0.9106903,-1.6077881,-0.3515625,-1.486969
0.18685913,-5.9071503,-1.3556213,-1.5558777,0.1661377,-1.6445618
0.21099854,-7.2013855,-2.1474,-1.2165375,0.2956543,-1.3305817
0.6743927,-9.319443,-2.5038147,-0.72631836,-0.0027618408,-0.75575256
0.8988495,-12.199249,-2.4918518,-0.3527527,-0.33691406,-0.28079224
0.99780273,-13.4696045,-1.963211,-0.28709412,-0.29078674,-0.03919983
0.61647034,-11.65242,-1.2025299,-0.5033417,0.15696716,0.007217407
0.08547974,-9.680008,-0.8054352,-0.8032837,0.7394409,0.03135681
-0.32963562,-8.715317,-0.5805664,-0.99967957,1.1187897,0.114730835
-1.1816254,-8.961273,0.2566681,-1.037857,1.2556152,0.09854126
-1.9611816,-9.742096,-0.3509369,-0.7736511,0.97766113,0.007522583
-2.0118713,-9.863892,-1.5876465,-0.3298645,0.30265808,0.013031006
-2.062561,-9.321838,-1.5254517,-0.15238953,-0.14205933,0.037460327
-2.1253204,-8.908737,-1.2671051,-0.11514282,-0.36013794,0.009963989
-2.207367,-8.937393,-0.8078308,-0.11911011,-0.37754822,-0.057525635
-2.2677155,-9.25737,-0.46098328,-0.09681702,-0.15151978,-0.1177063
-1.9636078,-9.469879,-0.539917,-0.093444824,0.5311127,-0.11708069
-1.8091431,-9.617935,-0.8365326,-0.24006653,1.6227417,-0.109451294
-1.7487946,-9.219162,-1.22406,-0.4187317,2.549118,-0.084106445
-1.6836243,-8.7057495,-1.5900269,-0.5274658,3.0143127,-0.024856567
-1.6908722,-8.500397,-1.5804749,-0.5439606,2.9461975,-0.017211914
-2.0673828,-9.305115,0.395401,-0.5852051,2.542099,-0.085632324
-3.3730927,-10.682938,1.3761597,-0.69821167,1.8579254,-0.24873352
-3.2668915,-9.737335,-1.1020508,-0.1496582,0.37016296,-0.32203674
-3.3899994,-9.360046,-1.269516,0.23062134,-0.34272766,-0.27346802
-3.8123627,-9.407791,-1.3269043,0.11332703,-0.1924591,-0.18704224
-4.167145,-9.887756,-1.6952972,-0.1585083,0.20553589,-0.040725708
-4.6571045,-10.682938,-1.1881714,-0.28892517,0.2794342,0.12939453
-6.4213867,-13.624817,3.5122986,-0.302063,0.26753235,0.34625244
-7.7777863,-14.515488,4.8255463,-0.06535339,1.0133972,0.75279236
-6.078659,-11.134247,-0.8843689,0.9092865,1.4892731,1.3465576
-4.666748,-9.083038,-3.314743,1.7565765,0.2434082,1.6468048
-3.8751068,-9.357651,-2.3076782,1.9737396,-1.341507,1.6654205
-3.1221008,-12.24939,-0.57580566,1.9709778,-2.1790009,1.6602325
-2.0673828,-14.217026,0.5269623,1.8048248,-2.0287018,1.7723389
-0.7206421,-13.567505,-0.62124634,1.6475372,-1.0458069,1.6486511
0.4788971,-11.876877,-2.6090698,1.4731293,0.20922852,1.1339874
0.19168091,-11.043503,-3.0348663,1.0348206,1.2263184,0.39788818
-0.056915283,-10.303253,-2.5947113,0.5791168,1.8488007,0.080841064
-1.1381836,-10.234009,0.38104248,0.4480896,1.596817,0.23997498
0.17720032,-9.410187,-0.9991913,1.7458801,-0.47587585,0.6807251
0.25926208,-9.271683,-1.2312164,2.2309113,-2.0653534,0.7121887
-0.58306885,-9.465103,-0.11651611,1.6863098,-2.3640747,0.55244446
-1.7101746,-9.460327,1.5483856,1.0070343,-2.0488586,0.5670929
-1.842926,-9.118866,1.3283081,0.7058716,-1.2901611,0.79800415
-1.0923157,-8.364288,0.4073639,0.55223083,-0.25198364,0.99928284
0.16030884,-6.7238007,-0.121292114,0.37141418,0.60354614,0.87620544
1.3839569,-5.135849,-0.5518799,0.28712463,1.0164795,0.42904663
1.7725525,-4.9424286,-1.4489136,0.32284546,1.0073242,-0.11769104
2.0114899,-5.147812,-1.451294,0.32102966,0.5702362,-0.5092468
1.497406,-5.2815094,-1.1020508,0.2730713,-0.015274048,-0.72854614
0.4378662,-5.217041,-1.0135498,0.18174744,-0.27275085,-0.7496338
-0.8944092,-6.0910187,-0.3031006,-0.037246704,-0.36346436,-0.7187805
-3.138977,-8.94455,3.0673828,-0.25013733,-0.49143982,-0.6109619
-6.3513794,-13.023056,10.152756,-0.088256836,-0.5907135,-0.2728424
-10.010284,-16.578644,11.977905,0.55101013,0.071777344,0.22927856
-11.405304,-15.53035,4.1509857,0.8124695,0.55252075,0.7683716
-9.397247,-10.938431,1.8784943,-0.18232727,-0.17929077,1.2683868
-6.887192,-6.3202515,2.4167328,-1.0293121,-0.50579834,0.960495
-5.7335205,-6.0289154,2.2397003,-1.0674896,-0.039108276,-0.18733215
-4.1840363,-9.756424,-0.09257507,-0.70858765,0.56048584,-0.83851624
-2.7238617,-13.018295,-2.16893,-0.45080566,0.69088745,-1.0355225
-2.465622,-17.254425,-2.1378326,-0.6435394,0.4376831,-1.2529907
1.3767242,-18.302704,5.4857635,-0.9651489,0.018630981,-1.4136505
1.2850037,-10.377274,3.0625916,-0.7101288,-1.1127014,-1.46344
0.81196594,-6.317856,-2.2095947,-0.71073914,-1.5345001,-1.4069214
1.0291901,-3.1753845,-1.8388214,-1.1948395,-1.1258392,-1.4765625
0.8288574,-1.9718933,-1.6665955,-1.3295441,-0.68692017,-1.5614777
0.44752502,-3.0440521,-2.2239532,-1.1536102,-0.25411987,-1.5492554
0.21099854,-6.0050507,-3.61615,-0.69699097,-0.09346008,-1.2056427
0.76127625,-10.009552,-4.522751,-0.16156006,-0.3616333,-0.5507965
1.1184845,-13.491089,-3.8409882,-0.16400146,-0.31948853,0.02923584
0.55371094,-14.35791,-2.8530731,-0.5824585,0.42700195,0.3144989
0.4016571,-11.998657,-2.0086517,-0.9233093,1.2333527,0.47149658
0.070999146,-9.254974,-1.3771362,-1.1435394,1.718689,0.33772278
-0.36343384,-7.9965515,-1.2097015,-1.3167114,1.8939972,0.09428406
-1.1019592,-8.407272,-1.3867035,-1.4449921,1.8307648,-0.13020325
-4.2998962,-9.663315,2.2947235,-1.493866,1.2602234,-0.29362488
-2.895218,-9.142731,3.131958,-0.7962494,-1.7140961,-0.25177002
-1.850174,-9.290787,0.88339233,-0.5482483,-2.561386,-0.35346985
-2.1470337,-9.660904,0.20404053,-0.71287537,-1.3240509,-0.5459137
-2.2749481,-9.527191,-0.14761353,-0.6081085,0.114852905,-0.48390198
-1.8863678,-9.135574,-2.3770294,-0.42668152,1.5598602,-0.26123047
-1.657074,-9.522415,-2.4153137,-0.3717041,2.1249084,-0.1873169
-1.5557098,-9.742096,-1.5445862,-0.4492798,1.9101868,-0.24963379
-0.6772003,-9.603607,0.73747253,-0.43615723,1.8268127,-0.25512695
-0.6772003,-9.111694,1.4861908,-0.70462036,1.6081238,-0.2642975
-2.8686676,-10.212509,-1.2934113,-0.49601746,0.5568085,-0.4212799
-3.8485565,-10.988571,-2.0397491,-0.080322266,-0.045196533,-0.47229004
-4.6208954,-10.83815,-1.2695007,0.09439087,-0.045211792,-0.28170776
-5.1953125,-10.59697,-0.9322052,0.067214966,0.23884583,0.017929077
-5.8107605,-10.702026,-1.3292999,-0.035720825,0.6301117,0.32366943
-6.84375,-11.74794,-0.666687,-0.062301636,0.6945648,0.6355133
-8.832489,-13.610489,2.0531158,0.058044434,0.6175842,0.95835876
-9.015915,-12.337753,2.1655579,0.4016571,0.9376831,1.431778
-7.2178497,-9.219147,-1.4345398,1.0867462,0.92974854,1.772644
-5.7624817,-7.7673035,-2.6066895,1.7357941,-0.21411133,1.7369232
-4.7150116,-9.197662,-1.446518,2.0259705,-1.5351257,1.5964203
-4.1019897,-12.416534,0.24230957,1.9926758,-2.113922,1.8007507
-3.0569153,-14.677872,0.4384613,1.7116699,-1.6902771,2.0915222
-1.0681763,-14.396103,0.06529236,1.3824158,-0.9037781,2.1089325
0.6261139,-13.302444,-1.3795319,1.1172943,0.055603027,1.5884705
1.1788177,-12.263718,-2.252655,0.7461853,0.96517944,0.605896
0.69610596,-11.048279,-2.4464111,0.3732605,1.4288177,-0.19007874
0.8481598,-9.684799,-2.2095947,0.54338074,0.11820984,-0.3033905
1.3019104,-9.009018,-1.8125153,1.179306,-2.0644379,-0.022384644
0.6550751,-8.942154,-0.3987732,1.3103333,-2.7980957,0.21676636
-0.29344177,-8.650833,0.70877075,1.2180939,-2.3946075,0.5936737
-0.9161377,-8.359512,1.1584778,1.2364197,-1.7962646,0.9354553
-1.01268,-8.13028,1.0867157,1.1860199,-1.2806854,1.0701599
-0.46238708,-7.683731,0.5819855,0.9862671,-0.7229614,1.0222015
0.51268005,-6.678421,0.16816711,0.58950806,-0.044906616,0.73080444
1.3453369,-5.443878,-0.92025757,0.1270752,0.7648163,0.21463013
2.081482,-4.488739,-1.3890991,-0.14598083,1.0870361,-0.24932861
2.832077,-3.8225098,-1.5087128,-0.20829773,1.0079346,-0.6149292
2.7379456,-3.473877,-2.269394,-0.27365112,1.0879517,-0.9603729
1.6325684,-3.9705658,-2.8817596,-0.54304504,1.0455017,-1.1870117
-0.94026184,-7.3589783,-0.60928345,-0.9333954,0.37843323,-1.2829132
-5.721466,-13.97583,9.250931,-0.9611969,-0.9245453,-1.1259308
-10.990189,-19.546799,14.841248,0.6356201,-3.002121,-0.3794403
-13.256485,-20.110321,8.196014,0.8292694,-2.8200836,0.73568726
-9.544479,-13.4887085,2.8831787,-0.99632263,-0.022918701,2.063736
-6.5348206,-7.941635,1.414444,-1.5757294,1.8820801,1.9913483
-5.214615,-8.27832,-1.6139679,-0.70339966,2.420868,0.55519104
-4.418167,-14.429535,-0.35572815,0.22389221,1.749527,-0.7273407
-3.08107,-18.512833,4.038559,0.34118652,1.3084869,-1.0911102
-2.8083344,-13.691681,-1.9942932,-0.12887573,1.8897247,-0.81988525
-0.31756592,-7.0915375,-4.238083,-0.42208862,1.5152588,-0.42312622
0.6140442,-3.3998566,-2.7167206,-0.76327515,0.4389038,-0.68426514
1.0533142,-1.8644409,-1.0518188,-1.0274658,-0.25106812,-1.0678864
1.1015778,-1.9026489,-0.6714783,-1.0186157,-0.34788513,-1.385849
0.7950592,-4.2571106,-1.5110931,-0.778244,-0.30329895,-1.5443726
0.7106018,-8.120712,-2.8411102,-0.41293335,-0.5076294,-1.3800507
0.8216095,-12.593246,-3.659195,-0.11697388,-0.9850311,-0.978714
0.877121,-15.036072,-3.1831665,-0.08856201,-1.4532623,-0.5404053
0.56336975,-13.032623,-1.7670593,-0.38391113,-1.418747,-0.21755981
0.008255005,-9.608383,-0.99201965,-0.7623596,-0.9807434,-0.05293274
-0.33688354,-7.507019,-0.5686188,-1.0204468,-0.5843048,0.0038757324
-0.76649475,-7.2395935,-0.38920593,-1.1661377,-0.26113892,-0.048339844
-1.4253845,-8.7009735,-0.44422913,-1.2467651,0.025680542,-0.19067383
-1.8598175,-9.584488,-0.4250946,-1.2993164,0.24404907,-0.35713196
-2.1591034,-9.505707,-0.5135956,-1.3246613,0.41540527,-0.5382538
-2.2990723,-9.467499,-0.68821716,-1.1994324,0.5281067,-0.71203613
-2.0118713,-9.498535,-0.8413086,-1.0793915,0.60661316,-0.7795563
-1.8622437,-9.596436,-0.91786194,-1.0522156,0.6075287,-0.7548065
-1.1767883,-10.019104,0.20883179,-0.8976593,0.44503784,-0.6900635
0.22789001,-10.339066,1.5675354,-0.7913666,0.38790894,-0.5907898
0.04685974,-10.219681,2.3521423,-0.8078613,0.47802734,-0.5578003
-2.1952972,-10.140884,0.27818298,-0.29595947,0.82040405,-0.55015564
-3.7568512,-10.482346,-1.8364258,0.26268005,1.3613434,-0.4225006
-4.562973,-10.508621,-2.374649,0.44166565,1.4688568,-0.16500854
-5.115677,-10.171921,-2.0732422,0.42364502,1.242218,0.2625885
-5.424591,-9.620316,-1.6283112,0.2107544,1.055893,0.63339233
-5.692505,-9.474655,-1.0231171,-0.1255188,1.0262756,0.80352783
-6.8654633,-10.656662,0.6083069,-0.275177,1.008255,0.7760315
-8.880768,-13.056503,2.4884796,0.060195923,0.9700775,0.81359863
-8.352203,-11.325272,0.64897156,0.8818054,0.9059448,1.1917267
-7.0102844,-9.391083,-1.8483887,1.7159424,0.18359375,1.4766998
-5.82283,-9.424515,-1.9656067,2.1945648,-1.0613708,1.5930786
-5.007065,-12.598022,1.163269,2.2351837,-2.0079193,1.8132935
-3.691681,-14.737564,1.2900391,1.8860779,-1.5369415,2.2075958
-2.1470337,-14.534607,-0.96092224,1.5552826,-0.5186157,2.2775574
-0.2596588,-13.534073,-2.1713257,1.3298798,-0.04458618,1.7931366
1.4732666,-11.688232,-2.2359009,1.023529,0.5363617,0.8890381
1.2415619,-10.224457,-1.3101654,0.645401,1.3903503,-0.26397705
0.22547913,-9.262131,-0.04234314,0.6463165,1.3411865,-0.8885956
1.0726166,-8.810822,-1.3556213,1.6182098,-0.6059723,-0.6014862
0.6261139,-9.560623,-1.8340302,1.7852783,-1.6523895,-0.25938416
-0.80752563,-9.816132,-0.9704895,1.1945648,-1.8713837,0.21586609
-1.657074,-9.159454,0.07965088,0.76023865,-2.175293,0.7781677
-2.031189,-8.715317,0.12747192,0.5314789,-2.0525055,1.2014923
-1.4567719,-7.970291,-0.1499939,0.2913971,-1.3023529,1.4678345
-0.50341797,-6.661728,-0.4681549,0.062927246,-0.1979065,1.353302
0.8360901,-5.054657,-0.8054352,-0.06137085,0.7238922,0.8151245
1.7484131,-4.4051666,-1.3245239,0.03239441,0.95632935,0.13552856
2.211792,-4.6248474,-2.00148,0.12554932,0.72940063,-0.45211792
2.3566132,-5.1979523,-2.0612793,-0.018920898,0.4004364,-0.8162079
2.0959473,-5.7041626,-2.00148,-0.32435608,0.15638733,-0.94203186
0.4306183,-7.060501,-0.92025757,-0.67500305,-0.2162323,-0.89256287
-3.0472717,-10.379669,3.6558228,-0.85154724,-0.9553833,-0.77801514
-7.0778656,-14.393723,12.274521,-0.5696106,-1.2791443,-0.40019226
-11.306366,-18.477005,10.375214,0.33935547,-0.28892517,0.2060852
-11.499435,-16.41626,2.993225,0.3857727,0.8008728,1.092453
-8.839737,-10.315186,1.4287872,-0.8164215,0.81155396,1.5796356
-7.0006256,-6.1769714,1.1967468,-1.1746826,0.64082336,0.8041382
-5.615265,-7.0007935,-1.4178162,-0.64201355,0.67900085,-0.24839783
-3.5806732,-10.95755,-2.953537,-0.23944092,0.60661316,-0.67385864
-2.7021484,-14.257599,-0.8891449,-0.24403381,0.39341736,-0.9936676
-2.4704437,-18.343292,5.3876953,-0.36894226,0.5666046,-1.2926788
-2.3014984,-13.149628,-1.6211395,-0.4147644,1.8078918,-1.0223694
0.14822388,-7.1010895,-3.57547,-0.63742065,1.6774597,-0.5040436
0.96884155,-3.8129578,-1.5111084,-0.86161804,0.35920715,-0.70440674
1.3863678,-2.4423065,-0.6068878,-0.7476959,-0.29808044,-1.15065
1.3574219,-3.1467285,-0.9991913,-0.5567932,-0.36283875,-1.5376434
0.9664154,-6.131592,-1.774231,-0.38423157,-0.3399353,-1.7111206
1.024353,-10.011932,-2.81958,-0.23577881,-0.4758606,-1.5281677
1.3767242,-12.851135,-3.037262,-0.13591003,-0.94866943,-1.1613464
1.2705231,-12.127609,-2.4655457,-0.18600464,-1.3017578,-0.7932892
0.6550751,-9.596436,-1.7933655,-0.34298706,-1.3793335,-0.49702454
0.056518555,-7.946411,-1.3316803,-0.5299225,-1.3301544,-0.30612183
-0.5516968,-8.063416,-1.2120972,-0.71318054,-1.1920929,-0.21632385
-1.3650513,-9.629868,-1.2264404,-0.9422455,-1.0048676,-0.190979
-1.8018951,-10.766495,-1.2144928,-1.1920929,-0.78648376,-0.10850525
-2.1108246,-10.78801,-0.7934723,-1.332901,-0.65515137,-0.076431274
-2.3376923,-10.045364,-0.31266785,-1.3429871,-0.4413452,-0.14546204
-2.101181,-9.147507,0.36669922,-1.2843475,-0.047943115,-0.28260803
-1.2878113,-9.104523,1.8282623,-1.3041992,0.53697205,-0.43959045
-1.0778351,-10.124161,0.76856995,-1.0796967,1.0244446,-0.5171814
-1.591919,-11.074554,-1.9966888,-0.4831848,0.9257965,-0.57673645
-1.0585327,-10.816666,-0.61647034,-0.28556824,0.7153473,-0.47503662
-0.45031738,-9.469879,2.0459442,-0.39826965,1.2773438,-0.32170105
-2.4028625,-9.517639,0.7948761,-0.3304596,1.8790436,-0.27008057
-3.8123627,-10.580261,-1.963211,0.17654419,1.4044037,-0.248703
-4.4857483,-10.573105,-2.6114655,0.37202454,0.93647766,-0.06452942
-5.2049713,-10.033432,-1.5326233,0.2190094,0.57881165,0.2048645
-6.013489,-9.438843,0.027008057,-0.09649658,0.5375824,0.44403076
-6.952347,-9.388702,0.7972717,-0.20431519,0.82470703,0.64256287
-7.8550262,-10.233994,-0.6116791,0.17686462,0.94473267,0.877121
-9.00145,-11.642868,-0.16197205,0.72572327,0.44198608,1.2222748
-8.395645,-9.925964,-0.025604248,1.0601807,0.010116577,1.5894012
-6.5782623,-7.6383667,-2.101944,1.1463165,-0.083969116,1.632782
-5.43425,-8.760681,-2.0612946,1.3399506,-0.9825592,1.6077423
-4.9032745,-12.32579,0.73028564,1.5155792,-1.9911041,1.8972778
-4.1381836,-16.301651,2.6080933,1.5616913,-1.906189,2.2662506
-2.3521729,-17.051437,-0.03756714,1.5647583,-0.98561096,2.3963776
0.03237915,-15.217529,-1.8292389,1.4621277,-0.44039917,2.0225067
2.327652,-12.034485,-2.5229645,1.1673889,0.21383667,1.0246582
2.221466,-10.100296,-3.4510803,0.689682,1.1148682,-0.38308716
1.3091431,-8.987518,-1.934494,0.28405762,0.967041,-1.2034912
1.7990875,-8.87529,-1.2360077,0.99572754,-1.2104034,-0.98480225
1.2488098,-9.87822,-1.0542145,1.4972534,-2.165207,-0.5016022
-0.39964294,-10.296097,-0.6762543,1.3585815,-1.8289185,0.1630249
-1.6088104,-9.632263,-0.53990173,1.1771698,-1.7736359,0.9611206
-1.992569,-8.775009,-0.03517151,0.9431915,-2.0494385,1.5414581
-1.1381836,-7.4998627,-0.15000916,0.62309265,-1.757431,1.8838348
-0.06416321,-5.9095306,-0.7145386,0.23764038,-0.85946655,1.6944733
1.311554,-4.3812714,-0.8915405,-0.14445496,0.1811676,0.9220276
2.4193726,-3.779541,-1.2886353,-0.30786133,0.8360138,0.0029754639
3.049286,-3.7890778,-1.7311707,-0.22447205,0.9267273,-0.73983765
3.121704,-4.11145,-2.0373535,-0.2321167,0.7880554,-1.2178497
2.5714264,-4.880356,-2.7478027,-0.4871521,0.65304565,-1.3678131
0.4523468,-7.9822235,-1.3340759,-0.91049194,0.1582489,-1.2450256
-3.546875,-13.321564,5.591034,-1.109314,-0.98316956,-1.0513763
-9.006271,-18.775497,15.412964,-0.32130432,-1.9911041,-0.5107727
-12.240387,-19.69246,11.367935,0.73124695,-1.2122345,0.46632385
-9.858246,-14.267166,3.1582794,-0.28250122,1.3860931,1.6355286
-7.5436554,-8.383392,-0.07345581,-1.4321594,2.7303162,2.0032654
-6.0641785,-5.9859467,-3.1927338,-1.0301971,2.5226135,1.2381592
-5.1615143,-8.583969,-4.9844055,-0.08457947,1.2761383,0.19113159
-5.525955,-15.093369,3.1176147,0.33570862,-0.48164368,-0.8943939
-6.4624176,-19.98616,8.698364,0.3014984,0.24591064,-1.2117462
-3.1776123,-12.017761,-4.993988,-0.042129517,3.3176727,-0.43074036
-0.23310852,-5.699402,-4.3122406,-0.39001465,2.4688568,0.039031982
0.7540436,-2.635727,-2.02063,-0.6532898,0.58799744,-0.3711853
1.5287628,-1.4919281,-0.8293457,-0.71499634,-0.34358215,-0.8708801
1.2150116,-2.736023,-0.8389282,-0.69514465,-0.44895935,-1.3989716
0.64302063,-6.1101074,-1.8316345,-0.61328125,-0.31640625,-1.6659241
0.16514587,-11.096039,-3.1401215,-0.46881104,-0.36801147,-1.5318298
0.2713318,-15.172165,-3.7046509,-0.22447205,-0.94499207,-1.0648193
0.7540283,-13.906586,-2.9559326,-0.032348633,-1.6126709,-0.46769714
0.6671448,-9.59166,-1.6737671,-0.11665344,-1.8328857,-0.09599304
0.31718445,-6.850357,-0.8365326,-0.33137512,-1.6221466,-0.038253784
-0.071395874,-6.260559,-0.61647034,-0.4996643,-1.2186584,-0.09690857
-1.1019592,-8.142212,-0.75520325,-0.6587982,-0.8176117,-0.2685547
-1.765686,-10.062088,-1.0661774,-0.9034424,-0.28982544,-0.38095093
-1.6763916,-10.427429,-1.3890991,-1.134964,0.33203125,-0.46220398
-1.8549957,-10.069244,-1.6235352,-1.1862793,0.6564026,-0.6946411
-1.7850037,-9.543915,-1.6306915,-1.136795,0.661911,-0.8470459
-1.7946625,-9.742096,-1.4704437,-1.1129913,0.55592346,-0.8259735
-1.2081757,-10.656662,2.9788666,-1.2822113,0.4209137,-0.71022034
-2.320816,-11.215439,6.3995514,-1.9220886,0.5259857,-0.51626587
-2.4439087,-10.833359,2.4406433,-1.0033417,-0.25715637,-0.49519348
-2.9024506,-9.880585,0.89056396,0.25901794,0.49423218,-0.46250916
-3.7809753,-9.995224,-1.6737671,0.6121063,2.1664734,-0.3003235
-4.705368,-10.487122,-2.7693481,0.6869354,2.4135742,0.022521973
-5.680435,-10.582642,-2.9965973,0.7364197,1.7614746,0.51182556
-6.1390076,-9.78508,-2.2263336,0.55041504,0.97406006,1.021286
-6.5468903,-9.247818,-1.8627472,0.21107483,0.5302582,1.276947
-7.8019257,-9.789856,-0.40596008,0.1295166,0.17228699,1.3600311
-9.93306,-10.434586,5.717819,0.33599854,0.021118164,1.4818878
-9.481735,-8.84903,3.1200104,0.8271332,1.5046082,1.5753632
-6.981308,-7.5500183,-0.71214294,1.9700775,1.6475372,1.6828613
-5.6297455,-10.164764,-0.2791748,2.8252869,-0.23944092,1.7592316
-4.9008636,-12.485794,-0.5949249,2.4908295,-1.216217,2.139801
-3.6072235,-13.383636,-2.0923767,1.5656738,-1.1087036,2.3981934
-2.1253052,-14.090454,-2.0110474,0.9642792,-1.2094879,2.0353394
-0.48651123,-13.899429,-1.228836,0.6713562,-1.0653229,1.2353973
1.1401978,-12.256546,-0.41792297,0.555603,-0.39031982,0.17860413
0.48612976,-10.582642,1.5675354,0.5232239,0.34822083,-0.8836975
0.53681946,-8.918274,0.8809967,0.8622589,-0.22537231,-1.0917053
0.69369507,-8.443085,-0.19544983,1.064148,-1.0992279,-0.6815033
-0.6409912,-9.305115,0.050949097,0.6637268,-0.94558716,-0.20440674
-1.6257172,-9.302719,-1.0542145,0.35401917,-0.6334381,0.5567322
-1.9563751,-8.6914215,-1.7431335,0.36408997,-1.2840118,1.0597839
-1.9901581,-7.9249115,-0.8173981,0.274292,-2.1932983,1.1825714
-1.9611816,-7.003189,0.2016449,0.14051819,-2.2870636,1.0466461
-1.3216095,-5.656418,0.47433472,0.052246094,-1.4807281,0.6902008
0.585083,-4.550812,0.21839905,-0.0766449,-0.37687683,0.18165588
1.4515381,-4.691696,-0.3700714,-0.14659119,0.23674011,-0.45333862
1.492569,-5.2671814,-0.54948425,-0.23730469,0.29141235,-0.95059204
1.1860504,-6.0671234,-0.5781708,-0.4489746,0.25750732,-1.0874176
0.10720825,-7.136902,-0.81500244,-0.67193604,0.3207245,-0.87423706
-2.4101105,-9.78508,1.2661285,-0.8683319,0.16435242,-0.6042328
-5.895233,-13.610489,8.4639435,-0.8781128,0.07821655,-0.2841339
-9.788254,-16.991745,11.647812,-0.044891357,0.6414337,0.24580383
-11.272568,-15.616318,4.4739075,0.94776917,1.342102,0.95654297
-9.544479,-10.654282,1.0556183,0.35125732,0.40563965,1.3917999
-7.350586,-6.6975403,1.1919708,-0.6044464,-0.6865845,0.9208069
-6.36586,-5.556122,0.7326813,-0.8353424,-0.48103333,-0.09263611
-5.067383,-5.8928223,0.8355408,-0.749527,0.23124695,-0.58895874
-3.0279694,-9.656143,-0.97288513,-0.53297424,0.7220764,-0.5101471
-2.562149,-13.572281,-2.9559326,-0.37597656,0.9688721,-0.55688477
-2.5428467,-16.158371,-1.484787,-0.5186157,0.777359,-0.9325714
-2.636963,-18.238235,8.00943,-0.7223358,0.41481018,-1.0914001
-2.897644,-10.577866,5.8326263,-0.5946655,-0.5558624,-0.60362244
0.0806427,-6.57576,-2.1163025,-0.13682556,-0.49539185,-0.24565125
0.9784851,-3.5741577,-2.1067352,-0.02319336,-0.16368103,-0.611557
0.9495392,-2.8912354,-1.8651276,-0.07574463,0.12861633,-1.1854706
0.6912842,-4.0828094,-1.8316345,-0.18415833,0.485672,-1.5376434
-0.45996094,-7.7052307,-3.8697052,-0.2345581,1.0101013,-1.5245056
-1.1454163,-11.864944,-5.4987183,-0.21104431,0.77001953,-1.0214539
-0.54203796,-12.7747345,-4.8456726,-0.2086029,-0.4575348,-0.31925964
-0.6868439,-10.496674,-2.7191162,-0.461792,-1.2314911,-0.0064849854
-0.94026184,-8.271164,-1.5589447,-0.75471497,-1.2788391,-0.10636902
-1.0971527,-7.2443695,-1.0039825,-0.9978485,-0.9981537,-0.23098755
-1.514679,-8.197128,-0.87957764,-1.2605133,-0.58000183,-0.34858704
-2.1060028,-9.968948,-0.89393616,-1.471878,-0.28373718,-0.45150757
-2.1494446,-10.64711,-0.68821716,-1.6294861,-0.12338257,-0.41882324
-1.5364075,-10.229233,-0.08061218,-1.7223358,0.03605652,-0.35865784
1.0122833,-10.040588,5.394882,-1.7644806,0.26359558,-0.42248535
0.25683594,-10.198181,2.7516174,-1.4627075,0.43800354,-0.58651733
-1.8284454,-10.465637,-1.0063782,-0.42973328,0.3207245,-0.8247528
-2.2363281,-10.183853,-2.7310638,0.066589355,0.7342682,-0.7233429
-2.096344,-10.035812,-2.6042938,0.026290894,1.0378876,-0.5587311
-2.134964,-9.923584,-1.228836,-0.35154724,1.1737976,-0.5232849
-2.2870178,-9.551071,0.37149048,-0.6710205,1.650589,-0.4325714
-3.8703003,-10.38205,2.7468262,-0.7220459,1.6799011,-0.3824768
-4.053726,-10.479965,-0.60928345,-0.07910156,0.9914551,-0.33911133
-4.2226562,-10.355789,-2.0062714,0.35432434,0.60842896,-0.23924255
-5.0577393,-9.875824,-2.0182343,0.36164856,0.6676941,-0.06329346
-5.837311,-9.534348,-2.0445404,0.27827454,0.5901184,0.2583313
-7.138199,-10.367722,-2.4153137,0.18174744,0.32164,0.5946045
-9.170395,-12.118057,-1.1355438,0.21351624,-0.21775818,1.0157928
-10.509903,-11.805252,3.5601501,0.21412659,-0.44805908,1.5518341
-9.416565,-9.436447,0.37626648,0.31614685,0.8207092,1.7726746
-7.246811,-7.347046,-2.140213,0.93800354,0.9095917,1.7021179
-4.8767242,-8.435928,-0.17391968,1.5357513,-0.5460968,1.6492615
-3.9137268,-11.523468,1.5507812,1.7959747,-1.5063782,1.8539124
-3.4503326,-13.720337,-0.20022583,1.704956,-1.2705841,2.016098
-1.8839569,-13.851669,-0.7815094,1.5024719,-1.0833435,1.9409637
0.11444092,-12.6983185,-1.0566101,1.3500519,-0.901001,1.4953308
1.3187866,-11.167664,-1.6091766,1.1240234,-0.30052185,0.627594
1.0943451,-10.587418,-2.7693481,0.7956848,0.41296387,-0.35713196
0.40890503,-10.274597,-0.78630066,0.35310364,0.55714417,-0.8592529
0.6526642,-10.100296,-1.1164093,0.5864563,-0.41108704,-0.5920105
0.5730133,-10.556381,-1.4919586,1.0598907,-1.5787659,-0.04711914
-0.5758362,-10.66861,-0.8365326,1.0635529,-1.9578094,0.5270996
-1.7825928,-10.019104,0.15859985,1.0024567,-2.1847382,1.0661926
-2.3328705,-9.226318,0.4169464,0.96032715,-2.248581,1.4577637
-1.6498413,-8.070572,0.18011475,0.72268677,-1.6114502,1.7024231
-0.09310913,-6.1005707,-0.1930542,0.3473053,-0.519516,1.5206909
1.5118866,-4.90184,-0.8604584,0.05317688,0.44595337,0.7906952
2.2648926,-4.593796,-1.2431946,-0.083969116,0.8549347,-0.057495117
2.8441467,-4.412323,-1.1785889,-0.13191223,0.81889343,-0.6579895
3.2158356,-4.15683,-1.1977386,-0.21774292,0.71017456,-1.0245056
2.7258759,-4.116226,-2.2048187,-0.46697998,0.8170624,-1.2144928
1.3694916,-5.9477386,-2.1880646,-0.895813,0.62342834,-1.242279
-2.2701263,-11.165283,2.3664856,-1.2443237,-0.30815125,-1.2584686
-7.6088257,-17.440674,12.217133,-0.8307495,-1.4932404,-0.93714905
-13.413361,-21.010574,13.69783,0.56477356,-1.7064362,-0.032455444
-12.711014,-16.339844,3.459671,0.4444275,0.31004333,1.3829346
-8.692505,-8.722473,-1.1212006,-0.9706421,2.0491943,2.1062012
-6.580673,-4.4457397,-1.8507843,-1.1080933,2.087387,1.135849
-5.13739,-5.3053894,-3.8888397,-0.47125244,1.2648621,-0.12834167
-4.45195,-10.76651,-0.86763,-0.09526062,-0.05432129,-0.9438629
-3.9378815,-17.008469,5.57428,-0.10626221,-0.4290924,-1.21875
-2.2652893,-20.33957,7.3683624,-0.47735596,1.4526978,-1.1326141
-1.9756775,-12.089401,-3.8888397,-0.6361847,3.0375977,-0.6778259
-0.040023804,-6.203247,-3.47023,-0.40681458,1.7025299,-0.4896698
0.881958,-3.1753845,-2.0062714,-0.17681885,0.24073792,-0.81404114
1.135376,-2.1557617,-1.312561,-0.07296753,-0.25437927,-1.2563171
1.1353607,-2.8578033,-1.8627472,-0.09190369,-0.16122437,-1.6191711
0.5826874,-5.336441,-3.0229034,-0.14657593,0.025405884,-1.7422638
0.6478424,-9.419739,-4.7404175,-0.11419678,-0.40220642,-1.4719543
0.5078583,-13.058884,-5.0872803,-0.18995667,-1.2995758,-1.0177765
0.09031677,-13.37886,-3.0731506,-0.38023376,-2.2724,-0.56388855
-0.042434692,-10.981415,-1.2097015,-0.64138794,-2.3246155,-0.14117432
-0.16069031,-8.775009,-0.58535767,-1.0583038,-1.1490021,0.019180298
-0.6989136,-8.478912,-0.70018005,-1.258667,-0.2210846,-0.11979675
-1.5846863,-9.8591,-1.1140289,-1.3448029,0.23034668,-0.35528564
-2.0456543,-10.630402,-1.307785,-1.4019165,0.36167908,-0.42126465
-1.9370575,-10.150436,-1.0948792,-1.4495697,0.2853241,-0.38246155
-1.4905548,-9.4531555,0.1585846,-1.4850006,0.14299011,-0.42919922
-0.47927856,-9.288391,4.076828,-1.4379578,-0.11450195,-0.56970215
-1.6812286,-10.016708,1.1106415,-0.9016113,-0.47581482,-0.70347595
-2.2532349,-10.434586,-1.1594696,-0.3270874,-0.10960388,-0.6876068
-2.064972,-9.811356,-0.64038086,-0.24432373,0.68055725,-0.5312195
-2.1421967,-8.932617,0.23513794,-0.33961487,1.6258698,-0.3830719
-3.2596588,-9.097366,0.8570862,-0.28677368,2.1335144,-0.30703735
-4.164734,-10.238785,-0.9322052,0.05960083,1.7190399,-0.20439148
-4.2154236,-10.234009,-2.0182343,0.29722595,0.9126892,-0.013809204
-4.785019,-9.754044,-1.8794708,0.23155212,0.39772034,0.10623169
-5.3811646,-9.259735,-0.9704895,0.12800598,0.14604187,0.2531433
-6.3851776,-9.35289,0.78770447,0.01499939,0.22270203,0.41348267
-7.90329,-11.459,1.368988,0.015914917,0.68788147,0.6111145
-8.9652405,-13.543625,0.046157837,0.5717926,0.71720886,1.088501
-7.6522827,-10.687714,-0.70736694,1.3152313,-0.010345459,1.785202
-6.003845,-7.8461,-2.1952362,1.8643951,-0.8851013,2.0997925
-5.798706,-8.846634,-2.3076782,2.1832886,-1.7522278,2.037796
-5.9193573,-13.491089,1.091507,2.2153473,-2.3970032,1.9996185
-4.526764,-16.530884,2.1320648,1.9939117,-1.6987762,2.3123932
-2.4173584,-16.590591,-1.1690369,1.6716766,-0.15512085,2.4644928
0.34132385,-14.785339,-2.67128,1.4462585,0.6680298,1.8969879
1.7025452,-11.771805,-3.9079742,1.1264801,1.4001617,0.6538696
1.3815613,-8.717697,-2.8076172,0.48750305,1.8219604,-0.63842773
0.8191986,-7.284958,-1.8292389,0.39068604,0.40933228,-1.1225281
1.0219421,-7.655075,-1.4608765,1.1066132,-2.4449615,-0.84580994
-0.44308472,-9.18811,0.22555542,1.0605011,-3.1105042,-0.38642883
-1.6208801,-9.54628,-0.05430603,0.8427124,-2.4556427,0.46084595
-2.089096,-9.11647,-0.77911377,0.6985626,-1.9339752,1.252533
-1.9249878,-8.481308,-0.91308594,0.34272766,-1.6422882,1.7183075
-0.8147583,-7.4831543,-0.6308136,-0.02470398,-1.1532745,1.841095
0.6840515,-6.332184,-0.34376526,-0.24034119,-0.29103088,1.3560791
2.508667,-4.992584,-0.4131317,-0.29135132,0.7239227,0.43273926
3.7106018,-4.011154,-0.75520325,-0.12336731,1.2883606,-0.5189972
4.0533295,-3.9681702,-1.5469818,0.0617218,1.4850769,-1.3216858
3.4113312,-4.6200714,-2.8602448,-0.0076141357,1.4810944,-1.7798309
1.9149475,-6.5160522,-3.441513,-0.33564758,0.83052063,-1.7108002
-1.4470978,-10.59935,0.058120728,-0.66581726,-0.8374634,-1.2612
-5.694916,-15.406189,10.009232,-0.48316956,-2.7430725,-0.6307831
-10.809174,-18.510452,16.59465,0.69366455,-3.1685333,0.37226868
-10.9925995,-16.475967,5.4379425,0.78530884,0.01928711,1.601944
-8.434265,-11.205887,-1.2312164,-0.99783325,2.841507,2.3389587
-7.3216248,-7.2300415,-1.5541534,-1.6667328,3.010727,1.7632141
-7.104416,-6.236664,-1.9153748,-0.95170593,2.024765,0.50177
-7.1864777,-10.167145,-2.135437,0.039123535,0.85069275,-0.45759583
-7.4060974,-15.145905,2.1870728,0.4786377,-0.32676697,-1.0669556
-4.5846863,-17.837067,8.227112,0.21994019,0.31129456,-0.9954834
-2.7673187,-11.234528,2.1655579,-0.377182,2.0928802,-0.47286987
-1.0199127,-6.3871155,-3.9629974,-0.52012634,1.9948425,-0.10513306
0.59716797,-3.5574646,-2.4511871,-0.7595978,0.3577118,-0.3791046
1.2150116,-2.3587341,-1.2312164,-0.9284973,-0.43946838,-0.983551
1.2198486,-2.855423,-1.5709076,-0.94499207,-0.36494446,-1.5660248
0.77334595,-5.2051086,-2.8482819,-0.7944031,-0.31944275,-1.9139252
0.8698883,-9.340927,-4.2907104,-0.527771,-0.9290924,-1.9084167
0.48130798,-13.5412445,-4.5514526,-0.31854248,-1.9211426,-1.6533813
-0.18241882,-14.02121,-3.0827026,-0.24737549,-2.749176,-1.203476
-0.7061615,-11.074554,-1.2623291,-0.3551941,-2.7513123,-0.5635834
-0.5951233,-8.378601,-0.72410583,-0.70277405,-1.5088043,0.06561279
-0.5492859,-7.454483,-0.5901489,-0.9813385,-0.418396,0.26229858
-1.1816101,-8.581589,-0.8078308,-1.1016693,0.17903137,0.05430603
-1.7970734,-9.92836,-1.1140137,-1.1985016,0.5049286,-0.19889832
-1.9394684,-10.202972,-1.2431946,-1.2916565,0.6332092,-0.34275818
-1.657074,-9.801804,-1.2766724,-1.353363,0.59931946,-0.4542389
-1.1285248,-9.367203,-0.35810852,-1.3829803,0.44262695,-0.59962463
-0.09310913,-9.777908,2.459793,-1.3845062,0.16253662,-0.6955414
-1.0319824,-10.570694,1.4311676,-0.9663696,-0.67099,-0.7517395
-1.9636078,-10.635178,0.15141296,-0.59098816,-0.3511963,-0.77342224
-2.9072876,-9.768356,0.5341339,-0.53448486,0.9655304,-0.69033813
-3.9209595,-9.670471,0.6633148,-0.22721863,1.8839722,-0.49243164
-4.2781677,-10.145645,-1.0972748,0.2272644,1.8601379,-0.25785828
-4.459198,-10.105057,-2.4009705,0.44015503,1.3317413,0.030181885
-4.855011,-9.49614,-2.4870758,0.47528076,0.76026917,0.32705688
-5.299103,-8.989914,-1.6091766,0.4050293,0.30548096,0.5637665
-5.9483337,-9.04483,-0.8891449,0.17932129,0.22973633,0.67678833
-7.311966,-10.329529,-0.06388855,-0.069000244,0.4704132,0.7351227
-9.735153,-12.908463,2.8449097,0.051345825,0.5632782,0.9754944
-9.242798,-11.208267,0.6322174,0.6414337,0.87908936,1.4993134
-6.9813232,-7.8341675,-2.5995026,1.4496155,0.29785156,1.7943726
-5.680435,-7.518982,-1.6546326,1.8973846,-1.1502228,1.693573
-5.42218,-11.215439,1.0053864,2.001236,-2.071106,1.7030334
-4.8936157,-14.704147,1.2039337,1.809433,-1.637085,2.075058
-3.0834656,-15.592453,-0.018432617,1.5253754,-0.7250519,2.2656555
-0.8050995,-14.9691925,-0.9465637,1.477417,-0.27392578,1.9128723
1.4153442,-12.44281,-2.9822235,1.4523773,0.31097412,0.9715271
1.3694916,-10.267441,-3.9175568,1.0440063,0.91116333,-0.34428406
0.57543945,-8.6245575,-2.0541077,0.43649292,0.7419586,-1.1094055
1.0026398,-8.283096,-0.0471344,0.6142578,-1.1755524,-0.95944214
0.73713684,-9.560623,0.2566681,1.2049713,-2.483429,-0.5287628
-0.7085724,-10.74501,-0.11891174,1.2730865,-2.096756,0.0155181885
-2.1759949,-10.47757,-0.53990173,1.0540771,-1.583313,0.71984863
-2.8083344,-9.579727,-0.133255,0.74620056,-1.7344971,1.3087311
-2.1180725,-8.37384,-0.4418335,0.44076538,-1.622406,1.7458038
-0.72546387,-6.6593323,-0.56144714,0.14297485,-1.0060425,1.7048798
0.7178345,-4.9424286,-0.539917,-0.12245178,-0.06591797,0.99046326
1.7677155,-4.1615906,-0.9872284,-0.1774292,0.6674347,0.05949402
2.2649078,-4.0708466,-1.6330872,-0.056777954,0.834198,-0.67292786
2.431427,-4.5102234,-1.8364258,-0.047927856,0.61917114,-1.1240692
2.0959473,-5.057068,-2.0565033,-0.26539612,0.40568542,-1.3015137
1.1932983,-6.370392,-1.6522369,-0.6334381,0.2715912,-1.2318726
-1.6450195,-10.398773,2.0124664,-0.8600769,-0.21588135,-1.1118469
-6.0762634,-15.666473,10.497208,-0.514328,-0.8869171,-0.79052734
-11.6008,-19.456055,15.532562,0.74497986,-1.1028748,0.011245728
-12.044891,-16.196579,7.090866,1.2770538,-0.40585327,1.1379852
-8.914551,-9.959412,2.2636414,-0.3866577,0.80397034,1.914093
-6.660324,-5.711334,-0.7384491,-1.3020477,1.7712708,1.546051
-5.2339325,-5.532242,-3.6831207,-1.131607,1.8564911,0.44496155
-5.002228,-10.136108,-4.572983,-0.51982117,0.77220154,-0.6857605
-5.202545,-15.322617,-2.3363647,-0.1532898,-0.6431885,-1.4542389
-3.2934418,-19.62082,10.913437,-0.16062927,-1.0625458,-1.6872864
-1.2757416,-11.289459,2.7611847,-0.115722656,1.3394012,-1.096878
-0.25,-6.422928,-4.259613,-0.5793762,2.8619843,-0.54649353
0.6912842,-3.5717926,-2.4894562,-1.1453552,1.5684662,-0.68026733
0.82644653,-2.7479553,-1.7622681,-1.2519531,0.63720703,-1.0843506
0.4885559,-4.173523,-2.0995636,-1.1425934,0.29937744,-1.3491669
0.9109192,-6.4921875,-3.09227,-0.7742615,-0.09585571,-1.2251587
0.77334595,-9.9785,-3.4726257,-0.37872314,-0.6135559,-0.92523193
0.7250824,-12.7604065,-3.4463043,-0.11482239,-1.2118988,-0.5800781
0.26890564,-13.03978,-2.2167816,-0.12550354,-1.5759888,-0.31282043
-0.34654236,-10.468033,-1.1140137,-0.39154053,-1.2955933,-0.14086914
-0.8340759,-8.464584,-0.78868103,-0.6667328,-0.82888794,-0.008926392
-1.085083,-7.850891,-0.6595154,-0.8536682,-0.45869446,0.047576904
-1.6498413,-8.782166,-0.9274292,-1.0063782,-0.15386963,-0.03579712
-2.3666534,-9.95224,-0.9106903,-1.1212311,-0.06010437,-0.1769104
-2.5211182,-9.87822,-0.36769104,-1.1997223,-0.029266357,-0.25234985
-2.4052734,-9.360046,-0.24328613,-1.2660065,0.19155884,-0.39804077
-2.1856537,-9.343323,-0.28634644,-1.2650757,0.48020935,-0.5800934
-1.8743134,-9.749268,0.10595703,-0.98439026,0.5889435,-0.6316986
-1.4640045,-10.253113,0.07247925,-0.5851898,0.68240356,-0.5858917
-1.0633545,-10.436981,0.29733276,-0.34449768,0.83940125,-0.50891113
-1.6063995,-9.596451,1.2637329,-0.43919373,1.1191711,-0.45913696
-3.0158997,-9.295563,0.36431885,-0.22416687,1.5428162,-0.42004395
-3.9088898,-9.596436,-0.93460083,0.20924377,1.5333405,-0.34857178
-4.4254,-9.773148,-2.185669,0.44108582,1.4102478,-0.2040863
-5.1929016,-9.899704,-2.396164,0.4462738,1.1057281,0.056137085
-5.7624817,-9.555847,-1.5613403,0.34272766,0.68148804,0.38172913
-6.370697,-9.407791,-0.04234314,0.075164795,0.5678711,0.6184387
-7.5533295,-9.980896,1.3139801,-0.18444824,0.96157837,0.72810364
-9.397247,-12.10611,1.4096527,0.1499939,1.208664,0.9138031
-9.201767,-11.064987,0.44085693,1.0238495,0.7334137,1.3530121
-7.565399,-8.063416,-0.85087585,1.5953064,-0.07293701,1.54422
-6.336914,-7.5285187,-1.7168274,1.7348938,-0.7842865,1.4153137
-5.5621643,-10.174316,-0.25764465,1.7058868,-1.6755524,1.5142822
-5.2242737,-13.663025,0.8953552,1.5846252,-1.890274,1.9504547
-3.940277,-15.172165,0.058120728,1.4890137,-1.3221588,2.197235
-2.0867004,-15.399017,-0.5590515,1.49086,-0.83102417,2.0313873
0.4402771,-13.777634,-1.640274,1.5171356,-0.13372803,1.4183655
1.5432587,-11.148575,-2.458374,1.3109436,0.8241272,0.30262756
0.9616089,-8.4216,-1.2575378,0.79629517,1.3467255,-0.72761536
0.18685913,-7.4544983,-0.6379852,0.6496887,0.28320312,-0.96707153
0.2785797,-7.9058075,-0.73365784,0.94566345,-1.6327972,-0.5217438
-0.8509674,-9.21199,-0.5925293,0.8140106,-2.1398163,0.0014648438
-2.1253204,-9.276459,-0.68821716,0.53637695,-1.9779358,0.6425781
-2.748001,-8.770218,-0.75520325,0.40014648,-2.0863647,1.1529541
-2.6779938,-8.25444,-0.750412,0.19520569,-1.9751892,1.5142822
-2.0673828,-7.6192627,-1.3795319,-0.019515991,-1.2778778,1.5900269
-1.0030212,-6.821701,-1.312561,-0.23760986,-0.449234,1.2244263
0.91815186,-5.873703,-0.5757904,-0.3628235,0.23371887,0.48313904
2.2311096,-5.1692963,-0.63079834,-0.28952026,0.69462585,-0.2810669
2.9334564,-5.0427246,-1.1809845,-0.17651367,0.9411011,-0.9832611
2.7476196,-5.5441895,-1.8699188,-0.25317383,1.0388489,-1.4795837
1.828064,-6.6474,-2.063675,-0.5363159,0.89619446,-1.6078796
-1.3553925,-9.95462,0.6705017,-0.74645996,-0.11204529,-1.3332825
-5.8469696,-14.527451,9.174377,-0.3994751,-1.9012756,-0.8213806
-10.314407,-17.536194,16.489395,0.6985626,-2.8722382,0.05493164
-11.554947,-15.838394,7.9137573,1.080658,-1.4742737,0.9767151
-8.552536,-10.403564,1.0771484,-0.553421,0.5632782,1.7085419
-6.3200226,-6.759613,-0.9872284,-1.6471863,1.4792938,1.5109253
-5.9555664,-7.8676147,-1.7407379,-1.4327698,1.3772583,0.37164307
-6.2548523,-12.784271,-1.7072601,-0.5268402,0.6243744,-0.80397034
-5.685257,-17.64125,2.610489,0.10296631,-0.038726807,-1.2282104
-1.9394684,-15.778687,8.509384,0.40350342,0.7056122,-0.9884491
-0.76890564,-8.232956,-0.65234375,0.5339203,2.5761108,-0.46310425
0.06376648,-4.7824554,-3.7381287,-0.28616333,2.65979,-0.30213928
0.8191986,-2.702591,-2.5995026,-0.9202423,1.4927216,-0.6130676
0.7274933,-2.726471,-2.3363647,-1.1300812,0.7871704,-1.0620575
0.39683533,-4.689331,-3.1138,-1.0583038,0.25112915,-1.3070221
0.623703,-7.4592743,-4.0634613,-0.71499634,-0.5753784,-1.15094
0.66955566,-10.909775,-4.199814,-0.3759613,-1.5695648,-0.85191345
0.8240204,-13.025452,-3.3817139,-0.28250122,-2.2537537,-0.60206604
0.26409912,-12.54071,-1.9895172,-0.4788971,-2.1944885,-0.5278473
-0.4237671,-10.045364,-1.0948792,-0.80052185,-1.4843597,-0.4441681
-0.5758362,-8.0299835,-0.8078308,-1.0662384,-0.7085571,-0.24136353
-0.7857971,-7.6216583,-1.0063629,-1.3026581,0.01626587,-0.17080688
-1.4712372,-8.927826,-1.513504,-1.409256,0.34458923,-0.31678772
-2.0794525,-10.038208,-1.5733032,-1.4510956,0.1927948,-0.48173523
-2.3063202,-10.317581,-0.81022644,-1.543335,-0.1257782,-0.56144714
-2.5911102,-10.439377,2.7396545,-1.6936035,-0.40647888,-0.6555176
-2.5814667,-10.133713,2.687027,-1.650238,-0.812088,-0.75479126
-2.6418,-10.117004,1.134552,-0.79808044,-0.8270569,-0.69981384
-2.4945831,-10.253113,-0.3939972,-0.18415833,0.31954956,-0.56573486
-2.026352,-10.284164,-1.6330872,-0.02104187,1.4957733,-0.38002014
-1.9515381,-9.541519,-0.6188507,-0.22691345,2.0529022,-0.28320312
-3.00383,-8.784561,0.6322174,-0.37565613,2.0883179,-0.22425842
-4.278183,-9.787476,-0.5925293,-0.024108887,1.2596741,-0.20072937
-4.7512207,-10.425049,-2.0421448,0.32470703,0.6106262,-0.07702637
-5.39563,-10.274597,-2.0397491,0.35769653,0.40660095,0.18106079
-5.892807,-9.594055,-1.3914948,0.27033997,0.27830505,0.47335815
-6.5782623,-9.486603,-0.7647705,0.048294067,0.38154602,0.7042694
-8.328064,-11.155731,0.9551544,-0.04762268,0.57611084,0.9299774
-10.198547,-12.624283,3.2587433,0.3265381,0.7016449,1.3264465
-9.141434,-10.198181,0.7948761,1.1072235,0.96188354,1.7901001
-7.2250824,-7.5022583,-1.9990845,1.8598175,0.35437012,1.8136139
-6.1679535,-8.01326,-1.2814636,2.167389,-0.94403076,1.6251526
-5.4897614,-11.549728,0.512619,2.03331,-1.6969299,1.7815399
-4.4302216,-14.16449,0.5269623,1.6289062,-1.4049377,2.1761627
-2.5790558,-14.871292,0.13465881,1.3674469,-0.9565582,2.174942
-0.24758911,-14.061813,-1.7383423,1.4261017,-0.71221924,1.6489868
0.82644653,-12.815323,-2.7669525,1.368988,-0.32034302,0.588501
1.1763916,-10.900223,-2.3435516,1.000946,0.33695984,-0.53518677
0.6140442,-9.128418,-1.0422516,0.6756439,0.847641,-1.1240692
1.0677948,-8.268768,-0.72410583,1.0357513,-0.42755127,-0.95332336
1.1981354,-8.806061,-0.8915405,1.5626373,-1.980072,-0.5214386
0.14823914,-9.219162,-0.62602234,1.4224396,-2.1276093,-0.09169006
-1.299881,-9.171387,0.18489075,1.0354462,-1.8704224,0.39395142
-2.4366608,-9.037659,0.6298218,0.77430725,-1.7085419,0.8209381
-2.1132355,-8.390549,7.171631E-4,0.5879822,-1.2039642,1.2818451
-0.8871765,-6.7715607,-0.9106903,0.27674866,-0.25283813,1.4669495
0.4306183,-4.58902,-1.5374146,-0.08366394,0.64453125,1.0549011
1.3549957,-3.602829,-1.3508301,-0.25073242,0.9111786,0.2259674
1.6373901,-3.9156342,-1.4680481,-0.2287445,0.79693604,-0.5409851
1.1329498,-4.882736,-2.2861328,-0.20889282,0.6252899,-0.98631287
0.073410034,-6.468292,-2.7262726,-0.3646698,0.14971924,-1.0614471
-1.3891907,-9.414963,0.9503784,-0.7189636,-0.812088,-0.9139252
-5.1132507,-14.458191,8.865814,-0.6074829,-1.908905,-0.771286
-9.633774,-17.123093,14.355652,0.40534973,-2.8032227,-0.30213928
-10.811569,-15.828842,9.07869,0.2724762,-1.483429,0.5060425
-8.265305,-10.637558,5.512085,-0.6612396,0.41300964,1.3472137
-6.3634644,-6.960205,3.253952,-1.007904,1.5666351,1.3209534
-5.299103,-7.5643463,-0.18109131,-0.7302704,2.144516,0.57110596
-4.7632904,-12.215942,-3.0540009,-0.3050995,1.8943787,-0.51808167
-4.5702057,-16.351791,-3.2262268,-0.22050476,1.1402435,-1.2923584
-2.031189,-17.125458,3.6199493,-0.41688538,0.18362427,-1.4013977
-0.31033325,-9.104538,4.182083,-0.3787079,-0.9079895,-1.0635834
0.27615356,-5.4916534,-1.5589447,-0.47676086,-0.98802185,-0.8366394
0.94470215,-2.8339233,-1.7072449,-0.94070435,-0.49597168,-1.0364075
0.86024475,-2.079361,-1.5087128,-1.1633759,-0.0054473877,-1.4310303
0.01789856,-3.8296814,-2.3124542,-1.1334381,0.41362,-1.6775055
-0.5951233,-7.0819855,-4.2069855,-0.9025421,0.41545105,-1.4371338
-0.62890625,-10.826202,-4.506012,-0.56806946,-0.39089966,-0.7749481
-0.52996826,-13.708389,-3.6783295,-0.44255066,-1.181366,-0.15370178
-0.80752563,-13.796738,-2.2813416,-0.59617615,-1.1770782,0.1835022
-1.3119354,-11.17244,-1.3819275,-0.7461395,-0.76441956,0.1581726
-1.3940125,-8.822754,-0.8556671,-0.8985596,-0.42326355,-0.006164551
-1.4543457,-7.6813507,-0.58535767,-1.095871,-0.19326782,-0.11886597
-1.9129181,-8.338013,-0.3652954,-1.3386993,-0.01979065,-0.21507263
-2.5886993,-9.799408,1.1010742,-1.7259827,0.1592102,-0.3024292
-1.5677795,-10.733078,4.581558,-2.4199371,0.7266998,-0.40473938
-1.1164703,-10.475189,1.4335632,-1.7818756,0.35438538,-0.34703064
-1.695694,-9.725388,-0.2791748,-0.36221313,-0.2308197,-0.32777405
-1.5726166,-9.410187,-0.8078308,0.3421173,0.37301636,-0.2654724
-1.0923157,-9.417343,-2.1713257,0.5000305,1.4722748,-0.20498657
-1.2081757,-10.066849,-3.2908173,0.22268677,2.3360443,-0.3271637
-2.0697937,-10.102676,-2.8124084,-0.24737549,2.4444733,-0.48995972
-2.7721252,-8.588745,-1.4154205,-0.6184845,1.9349976,-0.4472046
-4.768112,-8.502792,1.6871338,-1.1261139,1.1350708,-0.43650818
-4.949127,-9.945084,1.9191742,-0.7608185,-0.40859985,-0.3968048
-4.9032745,-10.38205,0.13465881,0.023254395,-0.8875122,-0.22148132
-5.400467,-10.054916,-1.1833801,0.27705383,-0.06254578,-0.07548523
-5.723877,-9.658524,-1.2264404,0.35005188,0.39805603,0.24858093
-6.474472,-10.339081,-1.5900421,0.2672882,0.6497345,0.613266
-8.497009,-12.762787,0.65374756,0.22575378,0.5764313,1.0176544
-9.529999,-12.652939,3.6893158,0.31980896,0.6445465,1.6144867
-7.640213,-9.763596,-0.133255,0.938324,0.9997711,2.1554108
-5.3859863,-7.5715027,-2.264618,1.8760071,-0.015808105,2.2464294
-4.444702,-9.899704,-0.23371887,2.224823,-1.4809723,1.8435669
-4.3674774,-13.429001,0.49346924,1.977417,-1.8087158,1.7632294
-3.1582947,-14.842651,-0.018432617,1.4655151,-1.303833,1.9929199
-1.2009277,-14.892792,0.024627686,1.2975159,-0.94892883,1.8438416
0.72024536,-13.371704,-1.3221283,1.4157257,-0.3661499,1.15448
1.4008636,-11.005295,-2.5564423,1.3806,0.44599915,0.09890747
0.8867798,-9.23349,-2.6186523,0.99635315,1.0736694,-0.77311707
0.12893677,-8.435928,-1.1929474,0.6579437,0.64971924,-0.9209595
0.58992004,-8.631729,-0.36289978,0.94688416,-1.2143555,-0.4383545
0.26167297,-9.080643,-0.138031,1.2575073,-2.2366486,0.068359375
-1.1454163,-9.180939,-0.15718079,1.1738129,-1.9938202,0.4898529
-2.1566772,-8.954102,0.44563293,0.982605,-1.8554535,0.84233093
-2.3835602,-8.767838,0.12509155,0.77949524,-1.6224213,1.1502075
-1.365036,-7.879547,-0.24568176,0.47406006,-0.940979,1.3432312
-0.117263794,-6.6426086,-0.43704224,0.091049194,0.04222107,1.0973663
1.3332825,-5.369858,-0.8484955,-0.13008118,0.95088196,0.44158936
2.1683655,-4.636795,-1.2575378,-0.08885193,1.1778259,-0.21264648
2.7838135,-4.350235,-1.4178162,0.02507019,0.9343872,-0.7288208
2.7065887,-4.4385834,-1.4249878,-0.040603638,0.7224121,-1.0999298
1.3984375,-5.245697,-1.8938293,-0.3050995,0.7382965,-1.2544861
-1.6063995,-8.349945,0.2447052,-0.6642914,0.28808594,-1.1460571
-5.1856537,-12.650558,5.488159,-0.69789124,-0.60806274,-0.75875854
-9.322433,-16.817429,12.87973,-0.0054779053,-1.2622986,2.4414062E-4
-12.0690155,-16.733856,10.626373,1.0366669,-0.8591156,0.99198914
-10.278198,-12.139557,3.3137665,0.07394409,1.0339508,1.7348175
-8.417374,-8.244904,-0.2743988,-1.0784607,2.1417694,1.6208801
-7.6667633,-7.4258423,-0.9298096,-1.1187744,1.8791046,0.7904053
-7.674011,-12.504883,-0.71214294,-0.5100403,0.8711548,-0.44874573
-6.814789,-16.726685,1.5388184,-0.07235718,0.07183838,-1.2526398
-3.7640991,-14.558487,6.368469,-0.24829102,0.3619995,-1.1881866
-1.8911896,-8.605469,1.5579681,-0.31578064,1.2706757,-0.68696594
0.10479736,-5.460602,-3.3817139,-0.34207153,1.4924164,-0.49821472
1.2343292,-3.2327118,-2.2957,-0.8334961,0.92033386,-0.9117737
1.4105072,-2.869751,-1.1905518,-1.1679535,0.555954,-1.5632629
1.1498413,-4.23085,-1.5565491,-1.1725311,0.5556488,-2.0314941
0.8964386,-6.8694763,-2.6521301,-0.93673706,0.51838684,-2.120987
0.8360901,-10.398773,-3.7955475,-0.624588,0.05229187,-1.8140259
0.8023071,-13.591385,-4.049103,-0.377182,-0.813324,-1.259964
0.74679565,-14.231354,-2.8817596,-0.28860474,-1.6437836,-0.6555023
0.04928589,-11.468536,-1.4656525,-0.37413025,-1.8078156,-0.19888306
-0.48893738,-8.846634,-0.8915405,-0.58488464,-1.3829498,0.030197144
-1.0730133,-7.774475,-0.6355896,-0.7299652,-0.98098755,0.061035156
-1.7970734,-8.311737,-0.6188507,-0.806015,-0.73023987,0.0332489
-2.639389,-9.448395,-0.44900513,-0.9129181,-0.5582733,0.04333496
-3.1896667,-9.80896,1.6105957,-1.070221,-0.33988953,0.0909729
-2.750412,-9.797028,2.3042908,-1.5289917,0.70744324,-0.041275024
-2.5742188,-9.923584,-0.26004028,-1.4733887,1.7932739,-0.3491516
-2.8035126,-9.546295,-1.6641998,-0.6047363,1.4896698,-0.463089
-2.4921722,-9.059158,-1.6641998,0.10601807,0.90078735,-0.31922913
-1.7777557,-8.786942,-1.9225464,0.40901184,0.76119995,-0.16375732
-1.0874939,-9.159454,-1.7503052,0.2565918,1.0513611,-0.18972778
-1.1647339,-9.348099,-1.51828,-0.45536804,1.7474518,-0.3430481
-1.7053528,-9.154678,0.36909485,-0.9663696,2.1940002,-0.40473938
-3.61203,-9.995224,2.359314,-0.6902466,1.0941315,-0.4603424
-3.9837189,-10.537262,0.189682,0.0687561,-0.07720947,-0.4520874
-4.9129333,-10.716354,-1.5134888,0.21261597,0.5296936,-0.3546753
-5.566986,-10.088348,-1.283844,0.25506592,0.7407379,-0.08589172
-6.1027985,-9.582123,-1.0422516,0.25201416,0.7028656,0.30049133
-7.1140747,-10.31041,-1.5972137,0.3091278,0.6301727,0.6874695
-9.06662,-12.36879,-0.41552734,0.5455322,0.21234131,1.1618042
-9.84375,-11.659592,1.8091278,0.73612976,-0.014907837,1.772995
-8.458405,-8.7391815,-0.1930542,0.8680725,0.49975586,2.0142822
-6.3055267,-6.812149,-0.88916016,1.3625641,0.14605713,1.7946777
-4.997406,-9.586884,0.78530884,1.8378296,-0.9895477,1.5002289
-4.5195312,-12.7986145,0.7901001,1.8729553,-1.5002289,1.7983398
-3.5227356,-14.546539,-0.2791748,1.6228027,-1.3682861,2.0503235
-1.5653687,-14.529816,-0.32463074,1.4429016,-1.2494812,1.9052429
0.6502533,-12.951431,-0.80303955,1.3592224,-0.64134216,1.2497711
1.963211,-10.654282,-2.319641,1.2458954,0.39102173,0.124557495
1.2222595,-9.510468,-2.697586,0.8237915,1.2016449,-1.0177765
-0.0038146973,-8.882462,-1.2073059,0.3130951,1.0657196,-1.3302307
0.32684326,-9.052002,-0.45619202,0.5036926,-0.75894165,-0.7410431
0.027557373,-9.730164,-0.4490204,0.9050293,-2.0863647,0.025894165
-1.3288422,-9.942688,-0.4346466,0.9001465,-2.1379852,0.68655396
-2.414917,-9.66568,0.2566681,0.8115692,-2.212204,1.1273041
-2.6538696,-8.877686,0.08442688,0.6918335,-2.1321716,1.4806824
-1.9080963,-7.788803,-0.7528076,0.4786377,-1.5787354,1.6526337
-0.6772003,-6.444412,-0.5470886,0.14633179,-0.85118103,1.3728638
0.87228394,-5.2385254,-0.34854126,-0.07449341,-0.055526733,0.6560211
1.8883972,-4.646332,-0.63079834,-0.045166016,0.452713,-0.10696411
2.3735046,-4.617676,-0.8532715,0.07028198,0.4673767,-0.74043274
2.508667,-4.522156,-0.4896698,-0.0048675537,0.3216858,-1.1359711
2.1321564,-4.4982758,-0.5566559,-0.3304596,0.45851135,-1.2810516
0.44509888,-6.955429,0.6154785,-0.7757721,0.50616455,-1.2639465
-3.3730927,-12.177765,5.076721,-0.9929352,-0.040267944,-1.1427002
-8.118088,-18.032867,11.977905,-0.5463867,-0.5045166,-0.61032104
-12.201767,-19.479935,10.760345,0.88212585,-0.42755127,0.46725464
-10.60643,-13.844498,4.4810944,0.7862091,0.57458496,1.7363281
-8.009476,-8.123108,0.6250458,-0.78370667,1.9414062,1.8746948
-6.925812,-7.98938,-3.565918,-1.1884155,2.3623047,0.72473145
-7.198532,-12.996811,-3.537201,-0.7449341,1.237381,-0.7294464
-6.800308,-17.318878,0.8211975,-0.18904114,-0.32034302,-1.3555908
-3.1365662,-13.787201,6.787079,0.1646576,-0.28582764,-1.0189972
-0.87994385,-7.5094147,-0.98243713,0.4645996,1.6402588,-0.47868347
0.36062622,-4.168762,-2.680832,-0.073272705,2.207138,-0.46646118
0.8867798,-2.4590302,-1.9153748,-0.6881256,1.5251007,-0.8803253
1.0026398,-2.583191,-1.3890991,-1.012497,1.0299835,-1.334198
0.38719177,-4.627228,-2.0804138,-1.1291656,0.89131165,-1.6283417
0.15789795,-7.7911987,-3.5993958,-1.0021057,0.42126465,-1.4939423
0.4306183,-11.298996,-4.410324,-0.77853394,-0.712204,-1.0504456
0.8698883,-13.748993,-3.7931519,-0.63435364,-2.08667,-0.59413147
1.2415619,-12.848755,-2.1115265,-0.64352417,-2.958084,-0.3448944
0.7950592,-9.85672,-0.9035034,-0.78034973,-2.8169708,-0.39590454
0.17237854,-7.8867035,-0.52557373,-0.91444397,-2.1199646,-0.5153351
-0.41893005,-7.504654,-0.34854126,-1.0308075,-1.393631,-0.52633667
-1.1598969,-8.980362,-0.661911,-1.148407,-0.7604675,-0.4945526
-1.8163757,-10.453705,-0.93460083,-1.2931824,-0.30781555,-0.4612732
-2.1542664,-10.905014,-0.49446106,-1.3991699,-0.120895386,-0.383667
-2.134964,-10.102661,0.6322174,-1.4633179,0.09994507,-0.36747742
-2.1759949,-9.543915,1.7397614,-1.6212158,0.5840454,-0.573349
-2.6973114,-9.680008,0.82359314,-1.134964,0.50494385,-0.6949158
-2.6297302,-9.959412,-0.8604584,-0.31427002,0.27342224,-0.5602112
-2.2459717,-10.422653,-0.73365784,-0.11541748,0.5235748,-0.43406677
-2.0794525,-10.05014,-0.2624359,-0.3658905,1.2095795,-0.36810303
-2.5573273,-8.92305,0.92167664,-0.52531433,1.7926636,-0.26119995
-3.93544,-9.360046,0.57003784,-0.17407227,1.5730438,-0.17138672
-4.273346,-10.207733,-1.3747559,0.38609314,0.9777527,-0.030593872
-4.8043365,-10.377274,-2.2335052,0.4392395,0.70835876,0.13404846
-5.2290955,-9.811356,-1.7909698,0.23246765,0.4542389,0.3066101
-5.6659546,-9.355255,-0.7815094,0.019577026,0.27708435,0.46299744
-7.0006256,-10.914551,-0.48727417,-0.016464233,0.28930664,0.57936096
-8.636993,-12.822479,1.1560822,0.35127258,0.019927979,0.89305115
-8.586319,-11.771805,1.9718018,0.85401917,-0.10928345,1.4361115
-7.1550903,-9.336166,-0.750412,1.4089966,-0.057357788,1.7983551
-5.9217834,-8.218628,-1.3819275,1.9312897,-0.7901001,1.815155
-5.499405,-11.9700165,0.19445801,2.2074127,-1.7348175,1.5879059
-4.63295,-14.825928,0.6561432,2.1191406,-1.7687073,1.7387848
-2.6249084,-15.064728,0.027008057,1.8359985,-1.1871643,1.947403
-0.41653442,-13.768082,-0.7934723,1.679306,-0.49565125,1.6221161
1.2753601,-11.618988,-2.1521912,1.5473633,0.4395752,0.70581055
1.5456696,-9.983276,-2.4440155,1.1698456,1.2767792,-0.42918396
0.77575684,-8.880081,-1.2671051,0.7126007,1.5761108,-1.0974731
0.97366333,-8.168488,-0.9991913,0.9218292,-0.04576111,-0.99760437
1.0750275,-8.271164,-1.312561,1.4459534,-2.0692596,-0.5076904
-0.09794617,-8.376236,-0.4250946,1.3757019,-2.6456146,0.00390625
-1.403656,-8.101624,0.7733612,1.1423492,-2.6065216,0.5937042
-2.238739,-8.113556,1.5555725,0.99360657,-2.4660187,1.0301666
-2.1566772,-8.168488,0.9742737,0.7837677,-1.674942,1.3963928
-1.266098,-7.855667,-0.39639282,0.4285431,-0.44374084,1.5148926
-0.50582886,-7.136902,-1.1666412,-0.021057129,0.63749695,1.1199646
0.7829895,-6.1912994,-1.0877075,-0.29838562,1.1805725,0.42173767
1.8473663,-5.821167,-1.1451111,-0.23118591,1.1121521,-0.13171387
2.5714264,-5.964447,-1.3843079,-0.10595703,0.9236908,-0.54037476
2.3421326,-6.279648,-2.1043396,-0.18414307,1.008606,-0.8265686
1.453949,-6.7070923,-2.420105,-0.5240936,1.145752,-0.86260986
-1.2033386,-9.023346,0.19207764,-0.84480286,0.5501404,-0.7334137
-6.1076202,-13.5937805,9.145676,-0.65940857,-0.72932434,-0.45303345
-11.043289,-16.624008,15.599548,0.7514038,-1.932724,0.26719666
-11.977325,-14.823547,6.9832153,1.6539612,-2.2888641,1.0176392
-9.076263,-9.921204,-0.26483154,-0.4116974,-0.8557739,1.510315
-6.2500153,-6.8766327,-2.3818207,-1.9568939,0.18362427,1.3319397
-6.141403,-8.806046,-0.21937561,-2.052185,0.2874756,0.22106934
-7.20578,-14.601471,4.344742,-1.1835327,0.27799988,-0.94233704
-5.583893,-19.059662,6.452179,-0.045791626,1.4566803,-1.2471466
-2.5886993,-13.648697,7.04303,0.6353302,3.2831726,-0.77433777
-0.94750977,-7.3589783,-2.7215118,0.6793213,4.0354767,-0.076416016
0.25442505,-4.612915,-4.611252,-0.42268372,2.70195,0.027130127
1.1522675,-2.640503,-2.7501984,-1.1047211,0.90200806,-0.49700928
1.1546783,-2.3778381,-1.6952972,-1.2797394,-0.0030059814,-1.1683502
0.5730133,-3.7078857,-2.2024078,-1.0766296,-0.3869171,-1.6152039
0.099975586,-6.430084,-3.3817139,-0.7180481,-0.88571167,-1.6619263
0.042037964,-10.128937,-4.661484,-0.40376282,-1.7598572,-1.4081116
0.08547974,-13.15918,-4.4366302,-0.23210144,-2.9602203,-1.0959625
-0.24517822,-13.605713,-2.5444794,-0.39672852,-3.6010132,-0.85191345
-0.89923096,-11.394516,-0.8915405,-0.6942291,-3.2439575,-0.65216064
-1.1912842,-9.123642,-0.40594482,-1.0237885,-2.203659,-0.39956665
-1.2685089,-8.170868,-0.26004028,-1.3066254,-1.291626,-0.21783447
-1.8718872,-9.020966,-0.06866455,-1.5347748,-0.7332916,-0.25479126
-2.709381,-10.007156,1.864151,-1.8527374,-0.24214172,-0.34153748
-2.1156464,-10.663834,6.8062134,-2.6465607,0.92401123,-0.466156
-1.8091431,-10.565933,1.7517242,-2.067154,1.0260162,-0.50616455
-2.5573273,-9.794632,-1.2049103,-0.29716492,-0.16792297,-0.39559937
-2.3014984,-9.016174,-1.3938904,0.4233551,-0.11997986,-0.19737244
-1.8308563,-8.834702,-2.1760864,0.574234,0.6094055,-0.07244873
-2.1035767,-9.925964,-2.9009094,0.29995728,1.539154,-0.16590881
-2.4221802,-10.339081,-3.1640472,-0.15603638,2.0742798,-0.28656006
-2.4752655,-9.703888,-2.5373077,-0.52378845,1.9768372,-0.25875854
-2.1591034,-8.6627655,1.6273193,-0.87319946,1.4411011,-0.15370178
-3.653061,-9.847168,4.1031494,-1.1334381,0.45362854,-0.114608765
-4.4012604,-10.716354,1.785202,-0.22966003,-0.8954773,-0.31680298
-5.1518707,-10.685318,-1.0948792,0.22758484,0.05290222,-0.34306335
-5.675598,-9.801804,-1.7957611,0.3922119,0.6915741,-0.04008484
-6.409317,-9.637024,-2.1474,0.52445984,0.5199127,0.43060303
-8.16153,-11.53302,-1.4584808,0.6173096,0.07795715,0.9428253
-9.631363,-11.927017,1.6679993,0.6405182,-0.26200867,1.5772095
-9.334503,-9.894928,1.0843201,0.6179199,0.31007385,2.037796
-7.9177704,-7.8389435,-1.0637817,1.1460266,0.36108398,1.9794617
-5.714218,-8.844254,-0.34854126,1.8744812,-0.8847809,1.707016
-4.8405304,-12.227905,0.84033203,2.008255,-1.9290619,1.8392639
-4.0126953,-14.505951,-0.09017944,1.6047974,-1.8725586,2.1831818
-2.0142822,-15.270081,-0.0040740967,1.355545,-1.6208801,2.0964508
0.34855652,-14.522659,-0.38920593,1.358902,-0.91838074,1.4321289
2.1490479,-12.003433,-2.369873,1.3494415,0.36260986,0.23756409
1.8352966,-9.691956,-3.4487,0.95695496,1.41362,-1.0367126
0.7805786,-7.903427,-2.252655,0.37358093,1.2071381,-1.4997406
0.77334595,-7.7553864,-0.5710144,0.556839,-1.1141663,-1.0214386
0.39683533,-8.536209,0.27578735,1.0611115,-2.6465302,-0.23524475
-0.8702698,-8.97081,-0.44662476,1.1973267,-2.3407898,0.48130798
-1.8839569,-9.214371,-0.18826294,0.9688568,-1.898529,0.97579956
-2.4101105,-9.180954,0.29014587,0.6218872,-1.7821503,1.3237
-2.489746,-8.827545,-0.36769104,0.3867035,-1.4785461,1.5753784
-1.2805786,-7.3804626,-0.73127747,0.11732483,-0.92755127,1.6031647
0.7564392,-5.026016,-0.6667023,-0.20675659,-0.12548828,1.1129456
2.0525055,-4.0135345,-0.9633179,-0.37809753,0.6781311,0.19328308
2.6607208,-3.8559418,-1.1594696,-0.3035736,0.9368286,-0.6390381
2.655899,-4.283371,-1.1403198,-0.17651367,0.7266998,-1.2199707
1.8908081,-5.317337,-1.2216644,-0.27027893,0.46096802,-1.4685974
0.6575012,-7.3159943,0.024627686,-0.65605164,0.18852234,-1.3268738
-2.4945831,-12.134766,4.677246,-0.9443817,-0.43670654,-1.1045074
-7.191284,-17.741547,11.66217,-0.49324036,-1.1703644,-0.7040863
-11.388428,-20.100784,12.68837,0.8118744,-1.606842,0.27604675
-10.000641,-14.971603,6.6555023,0.70710754,-0.050048828,1.6147766
-7.355423,-10.274597,1.8928528,-0.6022949,1.9300995,2.127594
-6.590332,-10.312805,-1.8196869,-1.0228729,2.7743073,1.3536224
-7.50264,-13.729889,0.34277344,-0.61846924,2.031189,-0.09046936
-7.531616,-15.537521,1.7995605,0.04219055,1.3314362,-1.2059174
-4.449524,-11.201111,1.864151,0.24346924,1.4847717,-1.0217438
-1.1671448,-6.633072,-2.558838,0.17259216,1.6591644,-0.49699402
0.6285248,-3.2709045,-2.941574,-0.200943,1.0617371,-0.5464783
1.3718872,-1.6543121,-2.0660706,-0.6309967,0.34365845,-1.0886383
1.4780884,-1.8429565,-1.425003,-0.98347473,0.028152466,-1.6649933
0.8988342,-3.9896698,-1.7933655,-1.1630707,0.10939026,-2.0534973
0.46923828,-7.356598,-2.9607086,-1.0888519,-0.007888794,-2.0449524
-0.037597656,-11.79808,-4.166336,-0.9474335,-0.59402466,-1.6961365
0.1820221,-15.227097,-4.2739716,-0.8218994,-1.6664124,-1.0984039
0.56578064,-14.9453125,-2.618637,-0.721405,-2.6514282,-0.46981812
0.3630371,-11.198715,-0.7336731,-0.7128601,-2.720459,-0.10726929
-0.2137909,-8.290253,-0.18348694,-0.7119446,-1.9513855,-0.07489014
-0.9861145,-7.466446,-0.21458435,-0.80570984,-0.9904785,-0.14483643
-1.8115387,-8.543381,0.024627686,-1.0045471,-0.29438782,-0.14239502
-2.6828308,-9.603607,2.1559906,-1.3808441,0.20805359,-0.082214355
-3.2596588,-10.55159,4.9092865,-2.436432,1.4810944,-0.20715332
-2.9048767,-9.713455,0.82121277,-1.7886047,1.2144623,-0.27770996
-2.6321564,-8.822754,-1.0422516,-0.056793213,-0.048828125,-0.20562744
-2.2097778,-8.383392,-1.3556213,0.6561127,-0.06562805,-0.07763672
-1.700531,-8.92067,-2.7932587,0.738266,0.55807495,-0.030914307
-1.842926,-9.899704,-2.0756226,0.20375061,1.1613007,-0.22851562
-2.2315063,-10.035812,-2.4153137,-0.29258728,1.9502411,-0.35681152
-2.463211,-9.429291,-2.3363647,-0.5677643,2.1304474,-0.2835083
-2.6635284,-8.610245,-1.0278931,-0.6908722,1.699173,-0.19828796
-4.0368195,-9.837616,2.2253418,-0.99079895,1.234314,-0.25112915
-4.8719025,-10.737854,0.99102783,-0.670105,0.075805664,-0.3329773
-5.002228,-10.685303,-0.58296204,0.11090088,-0.7271881,-0.24104309
-5.656296,-10.417877,-1.0255127,0.30699158,-0.30111694,-0.08039856
-6.2524414,-10.537262,-1.4943542,0.27796936,0.18269348,0.25131226
-7.5774536,-12.08223,-0.90112305,0.2538452,0.3137207,0.68777466
-8.919388,-12.519211,3.3592072,0.2617798,0.26760864,1.2357178
-8.723877,-10.857254,2.4167328,0.5018616,1.0034027,1.756485
-7.065796,-8.643677,-1.9823303,1.5122375,0.7428589,2.119049
-5.682831,-7.7124023,-1.3556213,2.2837677,-0.9355011,2.0848389
-4.9394836,-10.931274,0.49346924,2.3289642,-2.053711,1.7439728
-4.2154236,-13.2547,0.0030975342,1.8039246,-1.8029327,1.9049377
-2.5886993,-14.1979065,0.15620422,1.3677673,-1.333786,2.0570374
-0.46722412,-14.219391,-0.15957642,1.3005676,-0.8399048,1.681366
1.1160583,-12.965759,-1.9010162,1.3735657,0.06236267,0.73023987
1.6446381,-10.926498,-2.3052673,1.1414337,1.112442,-0.42797852
0.6840515,-9.04483,-2.353119,0.6967163,1.9132996,-1.1646881
0.5175171,-7.9392395,-1.2120972,0.59928894,0.8173981,-1.0825195
1.1426086,-8.232956,-0.37724304,1.164032,-1.8872375,-0.4707489
0.4161377,-9.152298,0.44802856,1.3195038,-2.706726,-0.0064849854
-1.3360748,-9.660919,0.9407959,1.135025,-2.254364,0.41563416
-2.4463043,-9.670471,0.9168854,0.9089966,-1.7403259,0.82644653
-2.6297302,-9.254974,0.23991394,0.5861511,-1.0347748,1.280014
-2.0529022,-8.146988,-0.65711975,0.21321106,-0.20336914,1.5591888
-0.6482239,-5.7686615,-0.80303955,-0.09953308,0.37145996,1.4364014
0.9374695,-3.8058014,-0.83891296,-0.20521545,0.5574646,0.78430176
1.7315063,-3.3067322,-1.1140137,-0.16062927,0.5583801,-0.092926025
1.5167084,-3.6577454,-1.4441223,-0.13069153,0.46369934,-0.8192444
0.7274933,-4.667816,-1.4776001,-0.25042725,0.21812439,-1.1992035
0.025146484,-6.6259155,-0.26483154,-0.50027466,-0.16305542,-1.1964569
-2.1518555,-10.897842,4.6365814,-0.69117737,-0.74368286,-1.141159
-6.761688,-16.284927,10.90387,-0.30052185,-1.3020325,-0.98539734
-10.956406,-19.687683,10.2747345,0.5565338,-1.2846222,-0.27435303
-10.073044,-15.89093,6.5000305,0.37358093,-0.05432129,1.032608
-7.2009583,-9.510468,3.8041382,-0.74432373,1.565094,1.6740265
-5.424591,-5.8140106,-0.5135956,-0.9520111,2.6835938,1.0686493
-4.5774384,-6.270111,-5.261902,-0.49783325,2.6283112,0.20091248
-4.7246704,-10.704422,-4.867218,-0.16795349,0.95513916,-0.6683502
-5.4776917,-17.550522,-0.81500244,-0.011886597,-0.9187012,-1.3213654
-2.4221802,-19.606491,14.441772,-0.05128479,-1.428772,-1.3644409
-1.1309357,-8.930222,-0.65234375,-0.10597229,1.2865295,-0.5913849
-0.1486206,-4.920944,-3.6304932,-0.7537842,1.7431641,-0.5018921
0.53923035,-2.29187,-2.2430878,-1.0360107,0.58709717,-0.93896484
0.43785095,-1.9384766,-1.5087128,-1.0830536,0.12863159,-1.3659668
0.06858826,-3.5288086,-2.6880035,-0.90437317,0.22117615,-1.5678558
-0.37550354,-6.9530334,-4.5562286,-0.5286865,-0.109313965,-1.373291
-0.8050995,-11.380188,-5.0250854,-0.19361877,-1.179245,-0.8980408
-0.5927124,-13.748993,-3.6304932,-0.1108551,-2.2833862,-0.33848572
-0.32965088,-12.726959,-1.8627472,-0.33044434,-2.4070892,-0.011978149
-0.6796112,-10.116989,-0.96810913,-0.72109985,-1.4801025,-0.03427124
-0.942688,-8.235336,-0.60928345,-1.0531158,-0.5830231,-0.15766907
-1.1719666,-7.936844,-0.6499481,-1.2776031,-0.07081604,-0.26060486
-1.804306,-9.393463,-0.989624,-1.4755249,0.19216919,-0.3876648
-2.504242,-10.55159,1.2350159,-1.7042999,0.12710571,-0.44232178
-2.7431793,-10.577866,7.076523,-1.9911041,-0.15664673,-0.44844055
-2.062561,-9.708679,1.6225586,-1.2879944,-0.6990967,-0.4517975
-2.2918396,-9.379135,-0.3557129,-0.12490845,-0.7803345,-0.39163208
-2.2628784,-9.135574,-1.9584198,0.36471558,-0.054626465,-0.32565308
-2.173584,-9.4722595,-1.7981567,0.2972107,0.6347351,-0.28076172
-2.2483978,-9.882996,-1.8818665,-0.024719238,1.3671722,-0.33787537
-2.354599,-9.849548,-1.8723145,-0.27241516,1.9169464,-0.35528564
-2.3449402,-8.977966,-0.9250488,-0.5735779,1.9765167,-0.27220154
-3.2596588,-9.118851,2.5171967,-0.9480438,1.7144623,-0.1521759
-4.777771,-10.391602,1.7277985,-0.49752808,0.47164917,-0.24197388
-4.987747,-10.441742,-0.6906128,0.32073975,-0.46574402,-0.23127747
-5.441498,-10.033432,-1.8340302,0.37327576,-0.2983551,-0.057495117
-6.2476044,-10.014328,-1.8603516,0.30241394,-0.28919983,0.25497437
-7.389206,-10.711594,-0.6977844,0.3155365,-0.46543884,0.60684204
-9.435883,-12.034485,3.526657,0.31829834,-0.28431702,1.0093994
-9.911331,-10.98381,3.8687286,0.39343262,1.0409698,1.388443
-8.284622,-8.17804,0.07485962,1.1597748,1.8778687,1.5714111
-6.08107,-6.308319,-2.0493164,2.2645264,0.6478729,1.6703644
-4.6063995,-8.0156555,-1.1427155,2.6399078,-1.3160706,1.7482452
-4.517105,-11.341995,-0.65234375,2.2623901,-2.337143,2.0570374
-4.126114,-13.720337,-1.1594696,1.6515045,-2.3893738,2.303833
-2.6538696,-14.6922,-0.81500244,1.1845093,-2.1722107,2.2247314
-0.9837036,-14.802032,-0.8413086,0.91296387,-1.3001862,1.6835022
0.7829895,-13.471985,-1.51828,0.7740021,0.06968689,0.73939514
0.73231506,-11.552124,-3.264511,0.5430908,1.5409698,-0.3623047
-0.3585968,-9.312271,-1.111618,0.047683716,2.214447,-0.90719604
-0.7061615,-8.521881,-1.0924835,0.3213501,0.7285156,-0.61886597
-0.66996765,-8.963638,-1.4943542,1.1341095,-2.0384216,0.09370422
-1.9684296,-9.541519,-0.22177124,0.81799316,-2.9223633,0.6602936
-3.1341705,-9.264526,0.65374756,0.21627808,-2.7555847,1.1306458
-3.324829,-8.18042,-0.1930542,-0.2079773,-2.1975555,1.5390167
-2.636963,-6.7118683,-1.2120972,-0.49325562,-1.5466766,1.7586365
-1.442276,-4.768112,-0.877182,-0.6878052,-1.0332336,1.5127563
-0.1486206,-2.9580994,-0.338974,-0.69880676,-0.5753937,0.74887085
1.0171051,-2.9270477,-0.5303345,-0.5919037,-0.23544312,-0.13201904
1.5022278,-4.254715,-1.1427155,-0.5451813,-0.16519165,-0.9081116
1.1932983,-6.059967,-1.4919586,-0.6639862,-0.43824768,-1.4682922
0.86505127,-8.063416,-0.99679565,-0.92329407,-0.6890259,-1.6549072
-0.79304504,-11.475708,2.5722198,-1.043335,-1.026825,-1.5538177
-6.124527,-16.165527,12.085556,-0.5564728,-1.7687378,-1.2987671
-11.36911,-18.596405,14.133194,0.68603516,-1.6141663,-0.44569397
-10.572647,-15.329773,5.5982056,0.96458435,-0.05340576,0.883255
-7.4809113,-9.765991,1.7445374,-0.21072388,0.67108154,1.6813507
-5.6442413,-6.241455,-0.65711975,-0.9727783,0.73217773,1.1227264
-5.103607,-5.603882,-2.4272614,-0.95965576,0.57640076,-0.08955383
-4.71019,-8.619797,-3.814682,-0.7647705,0.092285156,-0.8045654
-4.234726,-11.752701,-2.8985138,-0.60443115,-0.7543793,-0.89834595
-4.198532,-15.738113,-1.7622681,-0.5485382,-1.2815552,-0.87483215
-0.5878906,-17.433517,11.6262665,-0.49630737,-1.394867,-0.8427582
0.14099121,-9.61554,4.550476,0.12739563,0.28044128,-0.7309723
-0.47686768,-6.2056274,-2.8147888,-0.018920898,1.6371765,-0.65185547
0.34132385,-3.3807678,-2.4727325,-0.4471283,0.88183594,-0.71447754
0.06135559,-3.0631714,-1.975174,-0.66215515,0.28929138,-0.97561646
-0.58547974,-5.1191254,-2.8243713,-0.838089,0.29722595,-1.0718384
-0.8437195,-8.7487335,-4.673462,-0.7876892,0.066329956,-0.7214966
-0.8919983,-12.268494,-5.343231,-0.668869,-0.726593,-0.25997925
-0.2644806,-12.638611,-3.4726257,-0.65023804,-1.8020172,0.08729553
-0.25724792,-10.50145,-1.8531647,-0.7562256,-1.9990234,0.07324219
-0.9064789,-8.751129,-1.1905518,-0.97613525,-1.3976288,-0.1793518
-1.3843536,-7.941635,-0.91786194,-1.2003326,-0.8276825,-0.30152893
-1.8936005,-8.732025,-0.96810913,-1.4000854,-0.52407837,-0.3546753
-2.3280487,-10.071625,1.368988,-1.5512695,-0.5002594,-0.37330627
-2.2097778,-10.733078,7.129135,-1.9315338,-0.43855286,-0.4356079
-1.838089,-10.05014,1.90242,-1.6215363,-1.1483765,-0.6295624
-2.1929016,-9.651352,-0.8484955,-0.6667328,-1.6633453,-0.5782471
-2.2966766,-9.040054,-1.5039215,-0.27334595,-1.0084991,-0.5437317
-2.5814667,-8.934982,-1.7718506,-0.21621704,-0.059509277,-0.4906006
-2.9917755,-9.360046,-2.386612,-0.24920654,0.74316406,-0.44232178
-3.182434,-9.71106,-1.9488525,-0.332901,0.9838562,-0.41270447
-2.3352966,-9.379135,0.512619,-0.5613556,0.96369934,-0.34857178
-1.6595001,-8.832306,2.0483398,-1.0500488,1.0372925,-0.26457214
-2.9748688,-9.88298,0.5198059,-0.60198975,-0.031723022,-0.4502716
-3.9547577,-10.408325,-0.40116882,0.09074402,-0.5766144,-0.5605469
-4.601593,-10.396378,-1.4154205,0.115493774,0.20622253,-0.4402008
-5.1904907,-9.990433,-1.1331482,-0.060134888,0.6051178,-0.2725067
-5.6345673,-9.605988,-0.3868103,-0.1279602,0.3723755,-0.106048584
-6.1752014,-9.820892,-0.133255,-0.034179688,-0.015838623,0.018875122
-7.060974,-11.334839,-0.9944153,0.11669922,-0.3536377,0.12791443
-8.4149475,-13.073212,0.3547516,0.35708618,-0.89701843,0.38905334
-8.077057,-10.76889,2.115326,0.51620483,-1.092804,0.8072052
-7.237152,-8.404877,0.86665344,0.7810211,-0.7513275,1.0298615
-6.1293335,-7.3589783,-1.0446472,1.4154053,-0.96299744,1.1703644
-4.9998016,-8.194733,-1.5733032,1.9089966,-1.7595673,1.3209534
-4.524353,-11.053055,-1.5589447,2.0473633,-2.3643188,1.6682281
-3.7496185,-13.204559,-1.5254517,1.9019623,-2.437317,1.9996185
-2.2097778,-13.911362,-1.3580017,1.64357,-2.0427094,1.9953461
-0.7761383,-13.631973,-1.6713715,1.3631744,-1.0595093,1.5182495
0.30993652,-12.141922,-2.152176,1.041565,0.22027588,0.7308502
0.4547577,-10.496674,-2.790863,0.5962372,1.3628998,-0.022979736
-1.4905548,-9.708679,-0.98243713,0.14022827,1.9420013,-0.3778839
-1.1671448,-8.915894,-1.1809845,0.51560974,0.25386047,0.0014648438
-0.9716339,-9.178558,-2.278946,1.2278748,-2.4718475,0.5207062
-2.5476837,-9.957016,-0.2911377,0.6945801,-3.3435516,0.7876587
-3.800293,-10.011917,1.6321106,-0.028076172,-2.973053,1.1715851
-3.5565186,-9.106918,0.17771912,-0.24125671,-1.8020172,1.6013336
-2.704544,-7.6359863,-1.7431335,-0.35121155,-0.6276245,1.7033539
-1.4833221,-6.0241547,-1.5469818,-0.5167694,-0.18351746,1.29039
0.36787415,-5.1024323,-1.0518188,-0.5170746,-0.250412,0.5756836
1.1860657,-5.0952606,-1.3914948,-0.40925598,-0.38845825,-0.14910889
1.8401184,-5.3006134,-1.3005981,-0.42819214,-0.5252991,-0.70500183
2.366272,-5.4343414,-0.98005676,-0.53967285,-0.58517456,-1.0767212
2.1562805,-5.9525146,-1.3699646,-0.7036896,-0.25804138,-1.337265
1.5818634,-7.4998627,-0.8556671,-0.88542175,-0.047912598,-1.3992615
-1.8936005,-12.096558,5.177185,-0.7327118,-1.054306,-1.3112946
-7.9515686,-16.989365,16.341095,0.1594696,-2.7519226,-0.90322876
-12.035233,-19.238754,11.623886,1.2956848,-2.8954773,0.072631836
-9.916168,-14.403259,3.861557,0.20680237,-0.7122345,1.4354706
-6.59758,-8.0156555,0.8786011,-1.3481598,1.2459106,2.1208801
-5.3352966,-4.4576874,-1.1714325,-1.4901886,2.187271,1.2503815
-4.5484924,-4.479187,-5.233185,-0.7620392,2.0421906,0.18167114
-4.4254,-8.650833,-4.7858734,-0.27516174,0.53578186,-0.5926056
-5.3352966,-15.169785,-2.7215118,-0.095581055,-1.12854,-1.1234436
-4.4809113,-23.90709,16.850601,-0.030517578,-1.6526642,-1.2676086
-2.1880646,-11.743149,0.37149048,0.48139954,1.4099274,-0.47073364
-0.54685974,-5.71611,-4.075409,-0.3683319,2.2187195,-0.057174683
0.69610596,-2.1963654,-2.5636292,-0.84358215,0.7068176,-0.42796326
1.0074463,-1.1910553,-1.7024689,-1.013092,-0.11753845,-0.9646301
0.29545593,-2.8912354,-2.2430725,-1.1667328,-0.15939331,-1.3910065
-0.1872406,-6.513672,-3.802719,-1.0396729,-0.32798767,-1.3677979
-0.79545593,-11.117523,-4.742813,-0.72598267,-1.1526642,-0.96125793
-0.8775177,-13.980621,-4.0299683,-0.39337158,-2.2824707,-0.30488586
-0.60479736,-13.288116,-1.984726,-0.32128906,-2.8383636,0.2742157
-0.6940918,-10.284164,-0.8891449,-0.5036316,-2.276657,0.43426514
-0.8316498,-8.053848,-0.55426025,-0.80662537,-1.3121033,0.2259674
-1.0319824,-7.3685303,-0.4896698,-1.1035004,-0.6746521,-0.054122925
-1.4881287,-8.629349,-0.49446106,-1.3549042,-0.3176117,-0.30947876
-1.5726166,-10.035812,0.41693115,-1.7033997,-0.13894653,-0.48388672
0.073410034,-10.188644,2.2564545,-2.3307648,0.11242676,-0.5245056
-0.46479797,-10.191025,0.924057,-2.0118866,-0.777298,-0.7196808
-1.6522675,-9.995224,-0.44900513,-0.9703522,-1.5799866,-0.9627991
-1.8549957,-9.637024,-0.6379852,-0.52319336,-0.94621277,-0.9267731
-1.9442902,-9.357651,-1.4608612,-0.5216675,0.21322632,-0.8238373
-2.2508087,-9.28363,-0.3222351,-0.7883148,1.1448059,-0.7193756
-2.9917755,-9.617935,3.136734,-1.0140381,1.4593964,-0.5947571
-3.9547577,-10.210129,2.1990356,-0.59832764,0.7602539,-0.5098419
-4.0657806,-10.12178,-0.6475525,0.12860107,0.30088806,-0.3852234
-4.707779,-10.088348,-1.7455292,0.31002808,0.6502991,-0.22885132
-5.4873505,-9.961777,-1.4417267,0.22450256,0.62464905,0.057357788
-6.411728,-9.756424,-0.17869568,0.034225464,0.5348358,0.39057922
-7.4398956,-9.73494,0.507843,0.014678955,0.55348206,0.69815063
-8.525986,-10.596954,-0.70018005,0.36317444,0.50920105,1.0729065
-9.889618,-11.487656,0.18489075,0.90470886,-0.04119873,1.4938049
-9.756882,-9.706284,1.4096527,1.2425232,-0.35090637,1.6462097
-8.68045,-7.975067,-0.30070496,1.3622589,-0.035095215,1.4919739
-6.599991,-8.524277,-0.8197937,1.6029358,-0.56044006,1.529541
-5.4197693,-11.881653,0.87620544,1.8197937,-1.6545105,2.014267
-4.8236237,-14.876068,0.23513794,1.8570557,-2.0008698,2.3832245
-3.1220856,-15.800186,-1.1809845,1.6484528,-1.7754669,2.366745
-0.8871765,-15.298721,-2.16893,1.405014,-1.2995911,1.8658295
1.1450348,-13.335876,-2.1474,1.1121063,-0.26997375,0.8798828
1.970459,-10.448914,-3.159256,0.7913971,1.048584,-0.32414246
0.8722992,-8.2043,-2.7621613,0.35617065,1.9340515,-1.1652985
0.5030365,-7.2300415,-1.3819275,0.5397339,0.3537445,-1.1384125
0.3630371,-8.0395355,-1.0972748,1.440155,-2.6969452,-0.54403687
-1.157486,-9.209595,0.2877655,1.2715607,-3.3957825,0.028640747
-2.6345673,-9.577332,0.8498993,0.71383667,-2.9666443,0.69418335
-2.8831635,-9.133179,0.034194946,0.21871948,-2.2962189,1.3536224
-1.734314,-7.750595,-0.91308594,-0.2238617,-1.526825,1.8450623
-0.5010071,-5.728058,-1.0231171,-0.5769348,-0.7720947,1.7201385
0.8216095,-3.8893738,-0.5255585,-0.67803955,-0.02897644,0.9309082
2.0718231,-3.1634521,-0.24568176,-0.5063782,0.56448364,-0.020843506
2.4217682,-3.6195374,-0.9680939,-0.20033264,0.8845825,-0.8781891
1.8328705,-5.3197174,-1.8268433,-0.10748291,0.75813293,-1.489975
1.0750275,-7.927292,-1.1164093,-0.4046631,0.188797,-1.5773315
-1.0295715,-11.819565,2.6224518,-0.7018585,-0.7968292,-1.2208862
-5.1952972,-15.907639,9.066742,-0.3930664,-2.0949402,-0.7334137
-9.2500305,-17.29979,14.441772,0.28256226,-2.4229736,0.15449524
-9.863068,-14.565643,9.011719,0.4328308,-0.40190125,1.2855225
-7.811569,-10.140869,4.2969055,-0.26722717,1.6240387,1.9809875
-6.923401,-7.9249115,1.6799469,-0.7253723,2.3014984,1.6364594
-6.616867,-9.128418,-1.5039215,-0.62397766,2.051651,0.6453247
-6.4262085,-13.737061,-3.5443726,-0.4370575,1.0385132,-0.6585846
-6.2114105,-16.096283,-2.391388,-0.39642334,-0.15603638,-1.4459839
-4.133362,-12.053574,3.9978943,-0.5399933,-0.828598,-1.2389069
-1.331253,-7.0294495,-0.07585144,-0.57022095,-0.011871338,-0.6491089
0.26651,-3.9562378,-2.4774933,-0.740036,0.3748169,-0.5397644
0.9664154,-2.3993225,-1.3149567,-1.0427246,-0.14778137,-0.9163666
0.9253998,-2.8291473,-0.64276123,-1.2318115,-0.23088074,-1.365982
0.38235474,-5.4200134,-1.1642456,-1.2147064,0.022338867,-1.6344604
0.13616943,-9.118851,-2.0493164,-1.0476379,0.101119995,-1.5296936
-0.0665741,-13.11142,-2.836319,-0.84207153,-0.08732605,-1.1747742
-0.26930237,-15.181717,-2.542099,-0.66918945,-0.48469543,-0.6708069
-0.2379303,-12.352066,-1.3412628,-0.57969666,-0.7571411,-0.12957764
-0.4334259,-8.92543,-0.95373535,-0.60749817,-0.5085144,0.18501282
-0.8292389,-7.4664307,-0.9011078,-0.6600342,-0.22966003,0.19967651
-1.6932983,-7.8102875,-0.951355,-0.71928406,-0.12275696,0.12025452
-2.562149,-8.844238,-0.20262146,-0.8118286,-0.16888428,0.13217163
-3.221054,-9.438843,0.30210876,-1.1670532,0.05317688,0.1370697
-3.3055267,-9.075882,1.2230835,-1.6414032,0.62005615,0.032608032
-2.9169464,-9.154678,0.802063,-1.3744507,0.9395447,-0.16867065
-3.105194,-9.586884,-1.0446472,-0.5519104,0.8531189,-0.3748474
-2.7793732,-9.438843,-1.1642456,0.10142517,0.4820099,-0.3259735
-2.023941,-9.250198,-1.7933655,0.23397827,0.6392975,-0.22854614
-1.6643219,-9.510468,-1.6307068,-0.2592926,1.256897,-0.3256836
-1.623291,-9.706284,-1.9464569,-0.7110443,1.9490051,-0.53245544
-1.4205475,-9.622696,-0.3868103,-0.9043884,2.1304321,-0.6747894
-2.8566132,-9.794632,2.9932098,-0.854599,1.4807739,-0.62713623
-4.37471,-10.093124,0.85469055,-0.21226501,0.2565918,-0.6112671
-5.168762,-10.377289,-2.058899,0.216568,0.40931702,-0.55444336
-5.972458,-9.83522,-2.0110474,0.38302612,0.40075684,-0.2462616
-6.3586273,-8.796494,-0.6977997,0.31521606,0.2648468,0.2442627
-7.094757,-8.765442,0.51501465,0.0033721924,0.680542,0.65997314
-8.767334,-9.863892,3.34964,-0.16828918,1.3393707,1.071991
-10.512299,-12.215958,2.9525604,0.39738464,1.9593964,1.6349182
-9.307953,-10.420258,0.5198059,1.7263336,1.5232391,2.2082062
-7.3674774,-7.6431427,-1.0876923,2.4129486,0.45939636,2.1119995
-6.515518,-9.560623,-2.2000275,2.327118,-0.52531433,1.6697388
-6.14624,-13.032623,0.13945007,1.9758759,-1.6868896,1.9522705
-5.207382,-15.609146,0.34996033,1.508255,-1.9865265,2.3673553
-3.184845,-16.027039,-0.5112152,1.1863251,-1.8209839,2.3694916
-0.9861145,-15.236649,-1.5900269,1.1487579,-1.507904,1.750061
1.5553131,-12.884567,-2.3315887,1.1759338,-0.5573883,0.65997314
2.1490479,-10.587418,-2.8339233,1.0073395,0.7621002,-0.7615204
0.95436096,-8.564865,-1.6378784,0.59866333,1.9138947,-1.7389221
0.30513,-7.5762787,-1.2575378,0.9227295,0.9035034,-1.7108307
0.49336243,-8.175644,-0.8867645,1.8799591,-2.1441193,-0.9399109
-0.6265106,-9.238251,0.31407166,1.6304169,-2.9251251,-0.17631531
-2.1132355,-9.393463,0.8044586,0.97190857,-2.399475,0.60621643
-2.5525055,-8.7057495,0.54371643,0.4664154,-1.8347168,1.2967987
-1.3264313,-7.141693,-0.32463074,0.11883545,-1.1817017,1.8190918
-0.04484558,-5.1549683,-1.3221283,-0.23150635,-0.338089,1.7176971
0.5874939,-3.540741,-1.3556061,-0.52227783,0.44108582,0.95288086
1.4491272,-2.8076477,-1.0972748,-0.5372467,0.8314209,0.14500427
2.2311096,-3.1682281,-1.6426697,-0.3005371,0.86502075,-0.50190735
2.1804352,-4.412323,-2.135437,-0.18600464,0.56111145,-1.0400848
1.3284607,-6.6306763,-2.2885284,-0.45202637,0.13624573,-1.332077
-0.58306885,-10.468033,0.5556793,-0.97554016,-0.3047943,-1.3195648
-5.2628784,-16.194183,8.99498,-1.0369415,-1.0540314,-1.0813141
-11.12294,-20.53299,17.439072,0.09805298,-1.627945,-0.2856598
-11.431854,-17.278305,10.372818,1.0681152,-0.39949036,1.0484772
-8.115677,-10.678146,4.088791,-0.16249084,1.9273224,1.8383331
-6.4189606,-6.6306763,-0.5159912,-0.9688263,3.074234,1.4281464
-5.4559784,-7.4640503,-6.4435883,-0.74005127,3.0119324,0.42355347
-5.3377075,-12.805771,-5.9819183,-0.24220276,1.1209717,-0.7395325
-6.657913,-19.62082,3.3065796,0.15699768,-0.9703369,-1.6231537
-4.316803,-14.840256,6.629196,0.40470886,-0.37260437,-1.4069061
-0.32963562,-6.907669,-3.3673706,0.56811523,2.809723,-0.5171814
0.8167877,-3.0965881,-2.4751282,-0.15209961,2.5449219,-0.5800934
1.1932983,-1.7426605,-1.4273682,-0.6682739,1.7471161,-1.0669708
1.1064148,-2.5234985,-1.2025146,-0.93247986,1.353714,-1.5101471
0.64302063,-5.111969,-1.8723145,-1.0506897,1.2089386,-1.7358551
0.48130798,-8.94455,-2.8913422,-0.99386597,0.6973419,-1.5101471
0.31718445,-13.4266205,-3.3266907,-0.8252716,-0.40589905,-0.982666
0.3244171,-15.587662,-2.6473541,-0.7284546,-1.6569519,-0.38095093
0.40890503,-11.989105,-1.039856,-0.73394775,-2.3582306,0.05307007
0.2713318,-8.383392,-0.5088196,-0.72294617,-2.1856537,0.033218384
0.09272766,-6.499344,-0.4250946,-0.59832764,-1.8136444,-0.20471191
-0.24758911,-6.6975403,-0.34376526,-0.5445862,-1.4397888,-0.51535034
-0.6651306,-8.524277,-0.6953888,-0.65911865,-0.9300232,-0.77404785
-1.4350433,-10.214905,-0.91308594,-0.8955231,-0.2916565,-0.91516113
-1.3602295,-10.229233,-1.5087128,-1.1768341,0.5287323,-0.7917633
-1.4495239,-9.80896,-2.2359009,-1.3157959,1.1053925,-0.7459564
-1.7946625,-9.87822,-1.8388214,-1.3280182,1.0815735,-0.80215454
-2.2701263,-10.916946,-0.37008667,-1.237915,0.8118744,-0.787796
-3.7809753,-12.607574,5.234604,-1.3695526,0.67503357,-0.72366333
-3.438263,-10.725906,4.2012177,-1.0598297,0.21078491,-0.621933
-2.5862885,-9.374374,0.57003784,0.039123535,0.47314453,-0.35469055
-3.1317444,-8.827545,-2.1832733,0.5064392,1.7519989,-0.0920105
-4.2202454,-9.111694,-2.613861,0.6044922,1.8934326,0.17004395
-5.427017,-9.997604,-2.4105377,0.5711975,1.4355774,0.54512024
-6.373108,-10.095505,-1.5924377,0.34761047,0.99850464,0.95166016
-6.879944,-9.572556,-0.46575928,0.013168335,0.8656311,1.2674713
-7.9177704,-9.386307,1.8043518,-0.1184845,0.93588257,1.4287415
-9.752045,-10.663818,1.629715,0.34272766,1.1814575,1.5729218
-9.935471,-9.8591,0.7350769,1.3069916,0.87083435,1.7100525
-8.132584,-7.074829,-1.4321594,1.9490051,0.3638153,1.6107788
-6.592743,-7.423462,-2.4535828,2.0424805,-0.4571991,1.4437103
-5.6635437,-10.05014,-0.3317871,1.8311157,-1.700943,1.8218384
-5.9121246,-14.410431,1.2398071,1.4819946,-2.1306763,2.2964935
-4.821213,-16.308807,-0.09976196,1.2110901,-1.6875,2.5191498
-2.7986755,-16.554764,-0.7025757,1.1264648,-1.2617188,2.3035126
-0.1751709,-14.830704,-1.2862396,1.1921387,-0.38450623,1.5909271
2.066986,-11.833893,-2.2933197,1.2834625,0.7932434,0.4550171
1.8908081,-9.001846,-3.197525,0.99757385,1.8839569,-0.8406372
0.3630371,-7.6980743,-2.0158386,0.64572144,1.1603851,-1.4579163
0.23031616,-7.998947,-1.0876923,1.0711975,-2.1679535,-1.0489349
-1.2516022,-9.488983,0.61787415,0.9511566,-3.3154755,-0.37728882
-2.538025,-9.971344,0.6226654,0.62615967,-2.9535217,0.52130127
-3.1244965,-9.797028,0.10595703,0.3949585,-2.536911,1.2683868
-2.8252258,-8.796494,-0.9800415,0.11853027,-2.050354,1.7977142
-1.3722839,-6.8527527,-1.2958069,-0.14901733,-1.4492645,1.9098053
-0.059326172,-4.932892,-1.0326843,-0.3607025,-0.54029846,1.310852
1.6036072,-3.502533,-0.6906128,-0.46516418,0.4703827,0.4033966
2.8586273,-3.1562805,-0.98243713,-0.29136658,0.98443604,-0.5016022
3.4064941,-3.6864014,-1.1977386,-0.049468994,0.8992157,-1.3299408
3.0855103,-4.918564,-1.2766724,-0.14231873,0.6151581,-1.8690338
2.21904,-7.3661346,-1.082901,-0.6365051,0.38761902,-1.9252319
-1.0585327,-12.094177,2.7994537,-1.1148376,-0.4370575,-1.526947
-6.8630676,-17.829895,12.772079,-0.6991272,-2.0234985,-0.88920593
-12.146271,-20.375397,17.247696,1.0470428,-2.988968,0.32460022
-10.572647,-15.451553,6.2488556,0.96517944,-0.16278076,1.8050385
-7.2998962,-8.99469,-0.5231781,-0.85643005,2.7794647,2.4852448
-6.2114105,-4.866028,-3.2453613,-1.4831696,3.4242554,1.7751007
-5.509079,-3.9275818,-5.9819183,-0.91171265,2.4572449,0.61079407
-5.525955,-8.32608,-5.19252,-0.17774963,0.30392456,-0.6720276
-6.368286,-14.668335,-1.0135498,0.16830444,-1.7638702,-1.5935364
-5.5621643,-23.615768,20.01056,0.17289734,-1.946518,-1.7728119
-1.6522522,-11.764633,0.4073639,0.19702148,3.5830688,-0.6531067
-0.2234497,-5.7638702,-4.783478,-0.7666321,5.081543,-0.09628296
0.48371887,-3.0727081,-2.592331,-1.1420135,3.0836945,-0.54252625
1.0219421,-1.8095093,-2.1617584,-0.9538574,1.6542511,-1.0446625
1.2657166,-2.3444061,-2.3626862,-0.6829376,0.5317688,-1.4734955
1.0436707,-5.140625,-3.2286224,-0.48410034,-0.39491272,-1.7337341
0.58509827,-10.07402,-4.6519165,-0.31062317,-1.2794495,-1.6631775
0.49095154,-13.823013,-4.6064606,-0.159729,-2.5903778,-1.2697754
0.6550751,-13.92569,-2.814804,-0.24891663,-3.6300812,-0.779541
0.32925415,-11.088882,-0.98483276,-0.46302795,-3.5784607,-0.44815063
0.020324707,-8.626953,-0.008865356,-0.69454956,-2.7275085,-0.24533081
-0.5130768,-8.161316,-0.06866455,-0.92759705,-1.455368,-0.17845154
-1.2829895,-9.336166,-0.36050415,-1.1951447,-0.30082703,-0.26550293
-1.8622284,-10.031036,-0.28155518,-1.3628387,0.29232788,-0.35194397
-2.0915222,-9.594055,0.5413208,-1.461792,0.6927643,-0.36354065
-2.7576447,-9.541519,0.928833,-1.727829,1.3628845,-0.49427795
-3.730301,-9.531967,1.9287262,-1.5940552,1.4700928,-0.5758209
-3.0569153,-9.395859,-0.27200317,-0.38238525,0.26423645,-0.45181274
-3.0158997,-9.7827,-0.16435242,0.33110046,-0.09739685,-0.3690338
-2.9290009,-10.327133,-0.48249817,0.19885254,0.6081543,-0.36384583
-2.4342346,-9.57016,-1.4297638,-0.15911865,1.5840149,-0.24931335
-2.489746,-9.020966,-0.97288513,-0.24739075,1.9392395,-0.08773804
-3.6940918,-9.395859,1.1728363,-0.2580719,1.8964691,-0.07032776
-4.7150116,-10.035812,-0.64276123,-0.060775757,1.4667358,-0.11981201
-4.81398,-9.682404,-1.8938293,0.46824646,0.5934906,0.06222534
-5.2290955,-9.06871,-1.5158844,0.569046,0.18084717,0.30413818
-5.8517914,-9.18811,-2.341156,0.260849,0.24713135,0.43455505
-7.4495544,-11.179626,-2.879364,0.14692688,-0.02470398,0.59399414
-9.071426,-12.593246,-1.3029938,0.3256073,-0.77272034,1.0219116
-9.937881,-11.258408,2.8783875,0.28529358,-0.93917847,1.4938049
-9.346573,-8.94693,2.0220337,0.31155396,0.18269348,1.5063324
-7.1623383,-7.669403,0.23751831,1.1310425,0.4590912,1.3129883
-5.3304596,-9.93074,0.79966736,2.1145477,-0.7620239,1.3643036
-4.449524,-12.600403,0.61787415,2.344223,-1.5277557,1.9162292
-3.2331085,-13.569885,-0.64515686,1.9486847,-1.2718048,2.298935
-1.299881,-12.975311,-0.8365326,1.6872406,-0.97735596,2.1074219
0.77575684,-11.903152,-1.3436584,1.6704254,-0.38084412,1.3404694
1.4491272,-11.024414,-2.7119293,1.5323792,0.53393555,0.14317322
1.1691589,-10.427429,-3.776413,0.99879456,1.2428436,-0.87423706
-0.083465576,-9.88298,-3.231018,0.27766418,1.2758331,-1.2114258
0.13858032,-9.730164,-1.9392853,0.18449402,-0.84510803,-0.8235321
-0.071395874,-9.92836,-0.57341003,0.7425232,-3.4293976,-0.08773804
-2.2532349,-10.470398,1.3378906,0.82040405,-3.711914,0.5368805
-3.7013397,-10.427429,2.4238892,0.7782593,-2.8951874,1.164856
-3.6192627,-9.412582,0.44802856,0.6716614,-1.4779663,1.8081055
-2.2604675,-7.4306183,-1.2097015,0.2290802,-0.13406372,2.1119995
-0.3561859,-4.7108154,-1.22406,-0.29656982,0.48353577,1.7127991
0.91815186,-3.411789,-0.97528076,-0.5073242,0.5003357,0.6816406
1.5118866,-3.8296814,-0.93460083,-0.4905243,0.26545715,-0.31895447
1.634964,-4.7681274,-1.0063629,-0.47309875,0.058670044,-0.98387146
1.1450348,-5.720886,-1.4488983,-0.5369415,-0.0821228,-1.3195648
0.36064148,-6.8455963,-1.4225922,-0.69241333,-0.23179626,-1.3198547
-1.0319824,-9.245422,2.2086182,-0.7592926,-0.8356476,-1.145462
-4.9346466,-14.1453705,9.786758,-0.25778198,-1.7678223,-1.0028229
-9.587936,-17.763046,12.994553,0.9703827,-2.1462555,-0.4747162
-10.521973,-16.573868,5.9665833,1.1243134,-0.8667908,0.49258423
-7.357834,-10.804703,1.7947845,-0.530838,0.848526,1.3633881
-5.8083496,-7.084381,0.4217224,-1.5445709,1.8460693,1.1055908
-5.9869385,-8.089691,-1.9225464,-1.259903,2.1005096,0.08453369
-6.329666,-12.617126,-3.8768768,-0.34513855,1.2996521,-0.787796
-6.4358673,-16.693268,0.41215515,0.1872406,-0.19056702,-1.0171814
-3.7471924,-13.887482,9.3203125,0.29566956,-0.3109131,-0.5831604
-1.8018951,-7.917755,0.6872406,0.16403198,2.0400238,0.010604858
-0.6699524,-5.68985,-3.5443726,-0.3829956,2.3766022,0.012145996
